date,delta,maxTrialTime,receivedResponse,rsp,rt,selected,stimulus1,stimulus1Bid,stimulus1Loaded,stimulus2,stimulus2Bid,stimulus2Loaded,subjectID,trialDuration,trialEndTime,trialN,trialStartTime
2017-12-04 01:25:07,0.79,4000,True,u,1323.14,Nutterbutter,Nutterbutter,1.51,True,Milkduds,2.3,True,TEST00029,1323.14,1859.685,0,536.545
2017-12-04 01:25:07,0.14,4000,True,i,137.95,Crunch,Keeblerfudgestripes,1.32,True,Crunch,1.46,True,TEST00029,137.95,2508.62,1,2370.67
2017-12-04 01:25:07,0.15,4000,True,u,171.265,Cheese_PeanutButterCrackers,Cheese_PeanutButterCrackers,1.77,True,Dots_one,1.92,True,TEST00029,171.265,3188.595,2,3017.33
2017-12-04 01:25:07,-1.23,4000,False,NaN,4002.3,NaN,SourSkittles,1.97,True,CheesyDoritos,0.74,True,TEST00029,4002.3,7697.155,3,3694.855
2017-12-04 01:25:07,-0.05,4000,False,NaN,4005.335,NaN,100grand_small,1.9,True,Doritosranch,1.85,True,TEST00029,4005.335,12208.96,4,8203.625
2017-12-04 01:25:07,0.01,4000,False,NaN,4004.62,NaN,FigNewton_small,1.91,True,Dots_one,1.92,True,TEST00029,4004.62,16714.32,5,12709.7
2017-12-04 01:25:07,0.07,4000,False,NaN,4000.205,NaN,Doritosranch,1.85,True,Dots_one,1.92,True,TEST00029,4000.205,21220.47,6,17220.265
2017-12-04 01:25:07,-0.14,4000,False,NaN,4002.78,NaN,Ghiradelli_milk_Almonds,2.61,True,TeddyGrahamschocolate,2.47,True,TEST00029,4002.78,25725.95,7,21723.17
2017-12-04 01:25:07,-0.17,4000,False,NaN,4003.9,NaN,Milano,2.14,True,SourSkittles,1.97,True,TEST00029,4003.9,30235.67,8,26231.77
2017-12-04 01:25:07,0.48,4000,False,NaN,4000.755,NaN,Whatchamacallit,0.72,True,WheatThins,1.2,True,TEST00029,4000.755,34739.51,9,30738.755
2017-12-04 01:25:07,-0.01,4000,False,NaN,4001.395,NaN,TootsieRolls,2.07,True,Funyuns_small,2.06,True,TEST00029,4001.395,39244.71,10,35243.315
2017-12-04 01:25:07,0.06,4000,False,NaN,4001.265,NaN,MilkyWay,1.84,True,100grand_small,1.9,True,TEST00029,4001.265,43749.27,11,39748.005
2017-12-04 01:25:07,0.21,4000,False,NaN,4000.955,NaN,ChipsAhoy_small,1.76,True,SourSkittles,1.97,True,TEST00029,4000.955,48255.965,12,44255.01
2017-12-04 01:25:07,-0.17,4000,False,NaN,4005.345,NaN,Riprolls,1.57,True,Chocolate_mm,1.4,True,TEST00029,4005.345,52763.68,13,48758.335
2017-12-04 01:25:07,0.91,4000,False,NaN,4000.48,NaN,Ghiradelli_milk,0.59,True,Almondjoy,1.5,True,TEST00029,4000.48,57269.855,14,53269.375
2017-12-04 01:25:07,-0.06,4000,False,NaN,4000.26,NaN,Riprolls,1.57,True,Nutterbutter,1.51,True,TEST00029,4000.26,61774.365,15,57774.105
2017-12-04 01:25:07,-0.16,4000,False,NaN,4004.775,NaN,Toberlorone,2.28,True,Skittles,2.12,True,TEST00029,4004.775,66279.855,16,62275.08
2017-12-04 01:25:07,-0.5,4000,False,NaN,4004.41,NaN,Ghiradelli_milk_Almonds,2.61,True,3Musketeers,2.11,True,TEST00029,4004.41,70790.165,17,66785.755
2017-12-04 01:25:07,-0.7,4000,False,NaN,4000.445,NaN,Keeblerfudgestripes,1.32,True,Jollyranchergreen,0.62,True,TEST00029,4000.445,75296.38,18,71295.935
2017-12-04 01:25:07,0.15,4000,False,NaN,4000.265,NaN,ChipsAhoy_small,1.76,True,FigNewton_small,1.91,True,TEST00029,4000.265,79801.605,19,75801.34
2017-12-04 01:25:07,-0.82,4000,False,NaN,4000.555,NaN,TeddyGrahamschocolate,2.47,True,MrGoodbar,1.65,True,TEST00029,4000.555,84305.625,20,80305.07
2017-12-04 01:25:07,0.01,4000,False,NaN,4216.07,NaN,3Musketeers,2.11,True,Skittles,2.12,True,TEST00029,4216.07,89027.13,21,84811.06
2017-12-04 01:25:07,-0.44,4000,False,NaN,4502.12,NaN,Lollipopred,2.72,True,Toberlorone,2.28,True,TEST00029,4502.12,95027.14,22,90525.02
2017-12-04 01:25:07,0.95,4000,False,NaN,4999.265,NaN,Cheese_PeanutButterCrackers,1.77,True,Lollipopred,2.72,True,TEST00029,4999.265,101027.14,23,96027.875
2017-12-04 01:25:07,-0.06,4000,False,NaN,6307.58,NaN,PeanutMMs,1.71,True,Ruffles,1.65,True,TEST00029,6307.58,108335.345,24,102027.765
2017-12-04 01:25:07,-1.25,4000,False,NaN,4724.465,NaN,Chocolate_mm,1.4,True,Twix,0.15,True,TEST00029,4724.465,114027.405,25,109302.94
2017-12-04 01:25:07,-0.08,4000,False,NaN,5565.635,NaN,BabyRuth,2.2,True,Skittles,2.12,True,TEST00029,5565.635,121004.115,26,115438.48
2017-12-04 01:25:07,-0.19,4000,False,NaN,4003.255,NaN,MrGoodbar,1.65,True,Crunch,1.46,True,TEST00029,4003.255,126227.235,27,122223.98
2017-12-04 01:25:07,-1.75,4000,False,NaN,4002.48,NaN,100grand_small,1.9,True,Twix,0.15,True,TEST00029,4002.48,130735.33,28,126732.85
2017-12-04 01:25:07,0.1,4000,False,NaN,4000.33,NaN,Chocolate_mm,1.4,True,Almondjoy,1.5,True,TEST00029,4000.33,135241.585,29,131241.255
2017-12-04 01:25:07,0.11,4000,False,NaN,4004.11,NaN,Granolabar,2.4,True,starburst,2.51,True,TEST00029,4004.11,139749.085,30,135744.975
2017-12-04 01:25:07,-0.1,4000,False,NaN,4005.405,NaN,PringlesRed,2.24,True,Milano,2.14,True,TEST00029,4005.405,144260.425,31,140255.02
2017-12-04 01:25:07,0.22,4000,False,NaN,4000.21,NaN,AnimalCrackers,1.98,True,BabyRuth,2.2,True,TEST00029,4000.21,148762.485,32,144762.275
2017-12-04 01:25:07,-0.23,4000,False,NaN,4005.38,NaN,Laffytaffyred_one,2.84,True,Ghiradelli_milk_Almonds,2.61,True,TEST00029,4005.38,153273.705,33,149268.325
2017-12-04 01:25:07,0.16,4000,False,NaN,4005.43,NaN,KitKat_small,1.04,True,WheatThins,1.2,True,TEST00029,4005.43,157784.22,34,153778.79
2017-12-04 01:25:07,0.08,4000,False,NaN,4000.265,NaN,Riprolls,1.57,True,MrGoodbar,1.65,True,TEST00029,4000.265,162290.43,35,158290.165
2017-12-04 01:25:07,-0.52,4000,False,NaN,4005.355,NaN,MilkyWay,1.84,True,Keeblerfudgestripes,1.32,True,TEST00029,4005.355,166801.77,36,162796.415
2017-12-04 01:25:07,-0.27,4000,False,NaN,4002.34,NaN,TeddyGrahamschocolate,2.47,True,BabyRuth,2.2,True,TEST00029,4002.34,171310.085,37,167307.745
2017-12-04 01:25:07,0.29,4000,False,NaN,4004.53,NaN,Fritos,0.0,True,FlamingCheetos,0.29,True,TEST00029,4004.53,175816.725,38,171812.195
2017-12-04 01:25:07,-0.19,4000,False,NaN,4000.85,NaN,Laffytaffyred_one,2.84,True,RiceKrispyTreat_small,2.65,True,TEST00029,4000.85,180323.34,39,176322.49
2017-12-04 01:25:07,0.33,4000,False,NaN,4005.39,NaN,Oreos,1.57,True,100grand_small,1.9,True,TEST00029,4005.39,184834.55,40,180829.16
2017-12-04 01:25:07,1.16,4000,False,NaN,4005.385,NaN,MilkyWay,1.84,True,Reeses,3.0,True,TEST00029,4005.385,189346.085,41,185340.7
2017-12-04 01:25:07,0.13,4000,False,NaN,4005.39,NaN,Laysclassic,1.07,True,WheatThins,1.2,True,TEST00029,4005.39,193852.4,42,189847.01
2017-12-04 01:25:07,-0.01,4000,False,NaN,4002.75,NaN,Milkduds,2.3,True,PopTartsStrawberry,2.29,True,TEST00029,4002.75,198359.14,43,194356.39
2017-12-04 01:25:07,0.22,4000,False,NaN,4005.385,NaN,PopTartsStrawberry,2.29,True,starburst,2.51,True,TEST00029,4005.385,202870.535,44,198865.15
2017-12-04 01:25:07,0.1,4000,False,NaN,4005.12,NaN,starburst,2.51,True,Ghiradelli_milk_Almonds,2.61,True,TEST00029,4005.12,207381.43,45,203376.31
2017-12-04 01:25:07,0.09,4000,False,NaN,4005.375,NaN,Milkduds,2.3,True,PayDay,2.39,True,TEST00029,4005.375,211892.62,46,207887.245
2017-12-04 01:25:07,0.21,4000,False,NaN,4004.005,NaN,Keeblerfudgestripes,1.32,True,Hersheymilk_several,1.53,True,TEST00029,4004.005,216401.245,47,212397.24
2017-12-04 01:25:07,0.01,4000,False,NaN,4001.19,NaN,FigNewton_small,1.91,True,Sourpatch,1.92,True,TEST00029,4001.19,220906.87,48,216905.68
2017-12-04 01:25:07,0.33,4000,False,NaN,4005.41,NaN,CheesyDoritos,0.74,True,Laysclassic,1.07,True,TEST00029,4005.41,225417.325,49,221411.915
2017-12-04 01:25:07,-0.55,4000,False,NaN,4005.385,NaN,Laffytaffyred_one,2.84,True,PopTartsStrawberry,2.29,True,TEST00029,4005.385,229928.64,50,225923.255
2017-12-04 01:25:07,0.82,4000,False,NaN,4005.035,NaN,Crunch,1.46,True,Toberlorone,2.28,True,TEST00029,4005.035,234435.865,51,230430.83
2017-12-04 01:25:07,0.04,4000,False,NaN,4005.445,NaN,PringlesRed,2.24,True,Toberlorone,2.28,True,TEST00029,4005.445,238942.07,52,234936.625
2017-12-04 01:25:07,0.74,4000,False,NaN,4005.31,NaN,Fritos,0.0,True,CheesyDoritos,0.74,True,TEST00029,4005.31,243453.25,53,239447.94
2017-12-04 01:25:07,0.07,4000,False,NaN,4005.295,NaN,Granolabar,2.4,True,TeddyGrahamschocolate,2.47,True,TEST00029,4005.295,247962.01,54,243956.715
2017-12-04 01:25:07,-0.26,4000,False,NaN,4005.45,NaN,Granolabar,2.4,True,Milano,2.14,True,TEST00029,4005.45,252473.565,55,248468.115
2017-12-04 01:25:07,0.23,4000,False,NaN,4005.39,NaN,MilkyWay,1.84,True,TootsieRolls,2.07,True,TEST00029,4005.39,256984.785,56,252979.395
2017-12-04 01:25:07,-0.43,4000,False,NaN,4005.285,NaN,Whatchamacallit,0.72,True,FlamingCheetos,0.29,True,TEST00029,4005.285,261496.125,57,257490.84
2017-12-04 01:25:07,-1.05,4000,False,NaN,4003.015,NaN,WheatThins,1.2,True,Twix,0.15,True,TEST00029,4003.015,266004.925,58,262001.91
2017-12-04 01:25:07,-0.59,4000,False,NaN,4005.35,NaN,Ghiradelli_milk,0.59,True,Fritos,0.0,True,TEST00029,4005.35,270516.025,59,266510.675
2017-12-04 01:25:07,-0.02,4000,False,NaN,4003.28,NaN,Goldfish,2.25,True,Snickers,2.23,True,TEST00029,4003.28,275023.01,60,271019.73
2017-12-04 01:25:07,-0.91,4000,False,NaN,4003.66,NaN,Snickers,2.23,True,Keeblerfudgestripes,1.32,True,TEST00029,4003.66,279532.76,61,275529.1
2017-12-04 01:25:07,-0.94,4000,False,NaN,4002.345,NaN,Cheezits,1.23,True,FlamingCheetos,0.29,True,TEST00029,4002.345,284036.075,62,280033.73
2017-12-04 01:25:08,0.02,4000,False,NaN,4000.975,NaN,100grand_small,1.9,True,Sourpatch,1.92,True,TEST00029,4000.975,288539.3,63,284538.325
2017-12-04 01:25:08,0.5,4000,True,u,2801.89,Slimjim,Slimjim,1.28,True,Hersheykisses,1.78,True,TEST00029,2801.89,291847.095,64,289045.205
2017-12-04 01:25:08,-1.04,4000,True,u,68.29,AnimalCrackers,AnimalCrackers,1.98,True,FamousAmos_small,0.94,True,TEST00029,68.29,292423.78,65,292355.49
2017-12-04 01:25:08,0.53,4000,True,u,0.84500000003,Skittles,Skittles,2.12,True,RiceKrispyTreat_small,2.65,True,TEST00029,0.84500000003,292935.795,66,292934.95
2017-12-04 01:25:08,-0.63,4000,True,u,16.785,Riprolls,Riprolls,1.57,True,FamousAmos_small,0.94,True,TEST00029,16.785,293467.935,67,293451.15
2017-12-04 01:25:08,0.7,4000,True,i,30.67,Reeses,Milkduds,2.3,True,Reeses,3.0,True,TEST00029,30.67,294063.92,68,294033.25
2017-12-04 01:25:08,-0.17,4000,True,u,98.055,TeddyGrahamschocolate,TeddyGrahamschocolate,2.47,True,Butterfinger,2.3,True,TEST00029,98.055,294711.84,69,294613.785
2017-12-04 01:25:08,-0.69,4000,True,u,36.0550000001,Slimjim,Slimjim,1.28,True,Ghiradelli_milk,0.59,True,TEST00029,36.0550000001,295256.875,70,295220.82
2017-12-04 01:25:08,-0.37,4000,True,u,41.145,PopTartsStrawberry,PopTartsStrawberry,2.29,True,Dots_one,1.92,True,TEST00029,41.145,295806.855,71,295765.71
2017-12-04 01:25:08,-0.79,4000,True,u,75.2549999999,FamousAmos_small,FamousAmos_small,0.94,True,Twix,0.15,True,TEST00029,75.2549999999,296389.675,72,296314.42
2017-12-04 01:25:08,0.82,4000,True,i,24.805,PayDay,Oreos,1.57,True,PayDay,2.39,True,TEST00029,24.805,296921.645,73,296896.84
2017-12-04 01:25:08,-0.05,4000,True,i,32.84,Cheezits,Slimjim,1.28,True,Cheezits,1.23,True,TEST00029,32.84,297519.755,74,297486.915
2017-12-04 01:25:08,-0.06,4000,True,i,51.865,Hersheykisses,MilkyWay,1.84,True,Hersheykisses,1.78,True,TEST00029,51.865,298079.51,75,298027.645
2017-12-04 01:25:08,-0.32,4000,True,u,13.405,Doritosranch,Doritosranch,1.85,True,Hersheymilk_several,1.53,True,TEST00029,13.405,298620.73,76,298607.325
2017-12-04 01:25:08,-0.12,4000,True,i,154.27,Ruffles,Cheese_PeanutButterCrackers,1.77,True,Ruffles,1.65,True,TEST00029,154.27,299278.685,77,299124.415
2017-12-04 01:25:08,0.03,4000,True,i,113.22,Laysclassic,KitKat_small,1.04,True,Laysclassic,1.07,True,TEST00029,113.22,299896.66,78,299783.44
2017-12-04 01:25:08,-0.58,4000,True,i,103.025,Laysclassic,Ruffles,1.65,True,Laysclassic,1.07,True,TEST00029,103.025,300508.63,79,300405.605
2017-12-04 01:25:08,-0.53,4000,True,i,93.145,TeddyGrahamschocolate,Reeses,3.0,True,TeddyGrahamschocolate,2.47,True,TEST00029,93.145,301105.575,80,301012.43
2017-12-04 01:25:08,0.2,4000,True,i,35.34,FamousAmos_small,CheesyDoritos,0.74,True,FamousAmos_small,0.94,True,TEST00029,35.34,301645.58,81,301610.24
2017-12-04 01:25:08,-0.27,4000,True,i,38.96,Cheezits,Almondjoy,1.5,True,Cheezits,1.23,True,TEST00029,38.96,302231.55,82,302192.59
2017-12-04 01:25:08,-0.14,4000,True,i,69.48,Hersheykisses,Sourpatch,1.92,True,Hersheykisses,1.78,True,TEST00029,69.48,302826.36,83,302756.88
2017-12-04 01:25:08,0.16,4000,True,u,59.67,Laffytaffyred_one,Laffytaffyred_one,2.84,True,Reeses,3.0,True,TEST00029,59.67,303393.485,84,303333.815
2017-12-04 01:25:08,0.09,4000,True,u,72.08,Butterfinger,Butterfinger,2.3,True,PayDay,2.39,True,TEST00029,72.08,303974.48,85,303902.4
2017-12-04 01:25:08,-0.77,4000,True,u,80.68,Butterfinger,Butterfinger,2.3,True,Hersheymilk_several,1.53,True,TEST00029,80.68,304560.395,86,304479.715
2017-12-04 01:25:08,-0.21,4000,True,u,98.105,Lollipopred,Lollipopred,2.72,True,starburst,2.51,True,TEST00029,98.105,305166.41,87,305068.305
2017-12-04 01:25:08,0.54,4000,True,u,76.96,Cheezits,Cheezits,1.23,True,Cheese_PeanutButterCrackers,1.77,True,TEST00029,76.96,305752.395,88,305675.435
2017-12-04 01:25:08,-1.33,4000,True,i,23.195,Ghiradelli_milk,Dots_one,1.92,True,Ghiradelli_milk,0.59,True,TEST00029,23.195,306280.205,89,306257.01
2017-12-04 01:25:08,0.44,4000,True,u,37.515,TootsieRolls,TootsieRolls,2.07,True,starburst,2.51,True,TEST00029,37.515,306827.295,90,306789.78
2017-12-04 01:25:08,-0.58,4000,True,i,272.27,Milano,Lollipopred,2.72,True,Milano,2.14,True,TEST00029,272.27,307603.24,91,307330.97
2017-12-04 01:25:08,0.44,4000,True,i,65.855,Nutterbutter,Laysclassic,1.07,True,Nutterbutter,1.51,True,TEST00029,65.855,308178.07,92,308112.215
2017-12-04 01:25:08,0.75,4000,True,u,113.84,FlamingCheetos,FlamingCheetos,0.29,True,KitKat_small,1.04,True,TEST00029,113.84,308797.255,93,308683.415
2017-12-04 01:25:08,-0.02,4000,True,u,92.985,Cheetos,Cheetos,1.94,True,Dots_one,1.92,True,TEST00029,92.985,309399.07,94,309306.085
2017-12-04 01:25:08,1.17,4000,True,u,47.125,FlamingCheetos,FlamingCheetos,0.29,True,Crunch,1.46,True,TEST00029,47.125,309954.08,95,309906.955
2017-12-04 01:25:08,0.27,4000,True,u,17.22,MrGoodbar,MrGoodbar,1.65,True,Dots_one,1.92,True,TEST00029,17.22,310500.965,96,310483.745
2017-12-04 01:25:08,0.3,4000,True,u,75.065,FlamingCheetos,FlamingCheetos,0.29,True,Ghiradelli_milk,0.59,True,TEST00029,75.065,311082.16,97,311007.095
2017-12-04 01:25:08,-0.85,4000,True,u,55.995,PringlesRed,PringlesRed,2.24,True,MrsFields,1.39,True,TEST00029,55.995,311643.17,98,311587.175
2017-12-04 01:25:08,-1.06,4000,True,i,87.23,Hersheykisses,Laffytaffyred_one,2.84,True,Hersheykisses,1.78,True,TEST00029,87.23,312254.11,99,312166.88
2017-12-04 01:25:08,-0.1,4000,True,u,87.265,Whatchamacallit,Whatchamacallit,0.72,True,Jollyranchergreen,0.62,True,TEST00029,87.265,312846.06,100,312758.795
2017-12-04 01:25:08,-0.56,4000,True,i,36.9,WheatThins,ChipsAhoy_small,1.76,True,WheatThins,1.2,True,TEST00029,36.9,313392.06,101,313355.16
2017-12-04 01:25:08,1.0,4000,True,u,66.38,Laysclassic,Laysclassic,1.07,True,TootsieRolls,2.07,True,TEST00029,66.38,314005.855,102,313939.475
2017-12-04 01:25:08,-0.66,4000,True,u,30.865,Chocolate_mm,Chocolate_mm,1.4,True,CheesyDoritos,0.74,True,TEST00029,30.865,314558.025,103,314527.16
2017-12-04 01:25:08,-0.41,4000,True,i,3.78000000003,Funyuns_small,TeddyGrahamschocolate,2.47,True,Funyuns_small,2.06,True,TEST00029,3.78000000003,315094.775,104,315090.995
2017-12-04 01:25:08,0.12,4000,True,u,3.57000000001,Jollyranchergreen,Jollyranchergreen,0.62,True,CheesyDoritos,0.74,True,TEST00029,3.57000000001,315606.795,105,315603.225
2017-12-04 01:25:08,0.39,4000,True,u,12.335,Doritosranch,Doritosranch,1.85,True,PringlesRed,2.24,True,TEST00029,12.335,316124.93,106,316112.595
2017-12-04 01:25:08,-0.13,4000,True,i,57.9550000001,AnimalCrackers,3Musketeers,2.11,True,AnimalCrackers,1.98,True,TEST00029,57.9550000001,316691.69,107,316633.735
2017-12-04 01:25:08,-0.33,4000,True,u,30.25,Lollipopred,Lollipopred,2.72,True,PayDay,2.39,True,TEST00029,30.25,317241.885,108,317211.635
2017-12-04 01:25:08,0.09,4000,True,u,169.325,SourSkittles,SourSkittles,1.97,True,Funyuns_small,2.06,True,TEST00029,169.325,317964.85,109,317795.525
2017-12-04 01:25:08,0.89,4000,True,i,14.41,RiceKrispyTreat_small,ChipsAhoy_small,1.76,True,RiceKrispyTreat_small,2.65,True,TEST00029,14.41,318484.795,110,318470.385
2017-12-04 01:25:08,0.01,4000,True,u,25.985,Almondjoy,Almondjoy,1.5,True,Nutterbutter,1.51,True,TEST00029,25.985,319021.665,111,318995.68
2017-12-04 01:25:08,0.06,4000,True,u,83.695,Chocolate_mm,Chocolate_mm,1.4,True,Crunch,1.46,True,TEST00029,83.695,319613.77,112,319530.075
2017-12-04 01:25:08,-0.05,4000,True,u,128.395,Goldfish,Goldfish,2.25,True,BabyRuth,2.2,True,TEST00029,128.395,320245.735,113,320117.34
2017-12-04 01:25:08,-0.05,4000,True,u,119.765,Nutterbutter,Nutterbutter,1.51,True,Crunch,1.46,True,TEST00029,119.765,320869.72,114,320749.955
2017-12-04 01:25:08,-0.4,4000,True,i,59.085,Goldfish,RiceKrispyTreat_small,2.65,True,Goldfish,2.25,True,TEST00029,59.085,321437.69,115,321378.605
2017-12-04 01:25:08,-0.89,4000,True,i,25.155,Jollyranchergreen,Nutterbutter,1.51,True,Jollyranchergreen,0.62,True,TEST00029,25.155,321969.675,116,321944.52
2017-12-04 01:25:08,0.07,4000,True,u,127.28,Keeblerfudgestripes,Keeblerfudgestripes,1.32,True,MrsFields,1.39,True,TEST00029,127.28,322604.63,117,322477.35
2017-12-04 01:25:08,-0.01,4000,True,u,20.04,PringlesRed,PringlesRed,2.24,True,Snickers,2.23,True,TEST00029,20.04,323132.625,118,323112.585
2017-12-04 01:25:08,0.37,4000,True,i,68.34,Toberlorone,FigNewton_small,1.91,True,Toberlorone,2.28,True,TEST00029,68.34,323752.375,119,323684.035
2017-12-04 01:25:08,0.35,4000,True,u,82.965,Butterfinger,Butterfinger,2.3,True,RiceKrispyTreat_small,2.65,True,TEST00029,82.965,324348.56,120,324265.595
2017-12-04 01:25:08,-0.91,4000,True,u,24.6899999999,Milano,Milano,2.14,True,Cheezits,1.23,True,TEST00029,24.6899999999,324880.555,121,324855.865
2017-12-04 01:25:08,-0.28,4000,True,i,93.385,Snickers,starburst,2.51,True,Snickers,2.23,True,TEST00029,93.385,325524.36,122,325430.975
2017-12-04 01:25:08,0.44,4000,True,u,98.2,Twix,Twix,0.15,True,Ghiradelli_milk,0.59,True,TEST00029,98.2,326148.41,123,326050.21
2017-12-04 01:25:08,-0.23,4000,True,i,51.875,FamousAmos_small,RitzBitz2,1.17,True,FamousAmos_small,0.94,True,TEST00029,51.875,326706.32,124,326654.445
2017-12-04 01:25:08,-0.07,4000,True,i,62.15,PeanutMMs,Hersheykisses,1.78,True,PeanutMMs,1.71,True,TEST00029,62.15,327297.305,125,327235.155
2017-12-04 01:25:08,0.35,4000,True,u,32.8100000001,RiceKrispyTreat_small,RiceKrispyTreat_small,2.65,True,Reeses,3.0,True,TEST00029,32.8100000001,327850.42,126,327817.61
2017-12-04 01:25:08,-0.06,4000,True,i,256.595,Funyuns_small,Skittles,2.12,True,Funyuns_small,2.06,True,TEST00029,256.595,328653.37,127,328396.775
2017-12-04 01:25:08,-0.15,4000,True,u,43.515,Twix,Twix,0.15,True,Fritos,0.0,True,TEST00029,43.515,329202.35,128,329158.835
2017-12-04 01:25:08,-0.11,4000,True,u,5.89000000001,ChipsAhoy_small,ChipsAhoy_small,1.76,True,Ruffles,1.65,True,TEST00029,5.89000000001,329748.11,129,329742.22
2017-12-04 01:25:08,0.37,4000,True,i,27.415,Ghiradelli_milk_Almonds,PringlesRed,2.24,True,Ghiradelli_milk_Almonds,2.61,True,TEST00029,27.415,330283.32,130,330255.905
2017-12-04 01:25:08,0.86,4000,True,i,26.595,starburst,Ruffles,1.65,True,starburst,2.51,True,TEST00029,26.595,330866.275,131,330839.68
2017-12-04 01:25:08,-0.35,4000,True,i,26.225,100grand_small,Goldfish,2.25,True,100grand_small,1.9,True,TEST00029,26.225,331434.265,132,331408.04
2017-12-04 01:25:08,0.06,4000,True,u,138.92,Milano,Milano,2.14,True,BabyRuth,2.2,True,TEST00029,138.92,332127.19,133,331988.27
2017-12-04 01:25:08,0.06,4000,True,u,75.11,PeanutMMs,PeanutMMs,1.71,True,Cheese_PeanutButterCrackers,1.77,True,TEST00029,75.11,332706.105,134,332630.995
2017-12-04 01:25:08,0.18,4000,True,u,61.825,MrsFields,MrsFields,1.39,True,Oreos,1.57,True,TEST00029,61.825,333271.995,135,333210.17
2017-12-04 01:25:08,1.22,4000,True,u,8.60999999999,Whatchamacallit,Whatchamacallit,0.72,True,Cheetos,1.94,True,TEST00029,8.60999999999,333803.15,136,333794.54
2017-12-04 01:25:08,-0.12,4000,True,i,158.76,Slimjim,Chocolate_mm,1.4,True,Slimjim,1.28,True,TEST00029,158.76,334467.115,137,334308.355
2017-12-04 01:25:08,0.27,4000,True,u,71.8100000001,Ruffles,Ruffles,1.65,True,Sourpatch,1.92,True,TEST00029,71.8100000001,335047.875,138,334976.065
2017-12-04 01:25:08,-0.92,4000,True,u,72.325,Skittles,Skittles,2.12,True,WheatThins,1.2,True,TEST00029,72.325,335629.835,139,335557.51
2017-12-04 01:25:08,-0.61,4000,True,u,110.115,MrGoodbar,MrGoodbar,1.65,True,KitKat_small,1.04,True,TEST00029,110.115,336250.865,140,336140.75
2017-12-04 01:25:08,-1.62,4000,True,i,52.6950000001,FlamingCheetos,FigNewton_small,1.91,True,FlamingCheetos,0.29,True,TEST00029,52.6950000001,336807.84,141,336755.145
2017-12-04 01:25:08,0.01,4000,True,i,67.32,Cheese_PeanutButterCrackers,ChipsAhoy_small,1.76,True,Cheese_PeanutButterCrackers,1.77,True,TEST00029,67.32,337392.805,142,337325.485
2017-12-04 01:25:08,-0.44,4000,True,i,37.15,Granolabar,Laffytaffyred_one,2.84,True,Granolabar,2.4,True,TEST00029,37.15,337947.965,143,337910.815
2017-12-04 01:25:08,-0.1,4000,True,i,83.96,MilkyWay,Cheetos,1.94,True,MilkyWay,1.84,True,TEST00029,83.96,338574.895,144,338490.935
2017-12-04 01:25:08,0.04,4000,True,i,74.6400000001,Oreos,Hersheymilk_several,1.53,True,Oreos,1.57,True,TEST00029,74.6400000001,339158.685,145,339084.045
2017-12-04 01:25:09,0.77,4000,True,u,88.79,Snickers,Snickers,2.23,True,Reeses,3.0,True,TEST00029,88.79,339751.715,146,339662.925
2017-12-04 01:25:09,-0.52,4000,True,i,114.68,FamousAmos_small,Crunch,1.46,True,FamousAmos_small,0.94,True,TEST00029,114.68,340376.85,147,340262.17
2017-12-04 01:25:09,0.13,4000,True,u,145.77,KitKat_small,KitKat_small,1.04,True,RitzBitz2,1.17,True,TEST00029,145.77,341026.84,148,340881.07
2017-12-04 01:25:09,0.11,4000,True,i,213.405,MrsFields,Slimjim,1.28,True,MrsFields,1.39,True,TEST00029,213.405,341745.79,149,341532.385
2017-12-04 01:25:09,-0.55,4000,True,u,25.11,RitzBitz2,RitzBitz2,1.17,True,Jollyranchergreen,0.62,True,TEST00029,25.11,342279.77,150,342254.66
2017-12-04 01:25:09,-1.3,4000,True,i,54.42,Jollyranchergreen,Sourpatch,1.92,True,Jollyranchergreen,0.62,True,TEST00029,54.42,342888.75,151,342834.33
2017-12-04 01:25:09,-0.48,4000,True,i,51.51,Ghiradelli_milk,Laysclassic,1.07,True,Ghiradelli_milk,0.59,True,TEST00029,51.51,343470.53,152,343419.02
2017-12-04 01:25:09,0.42,4000,True,u,5.10999999999,AnimalCrackers,AnimalCrackers,1.98,True,Granolabar,2.4,True,TEST00029,5.10999999999,343994.47,153,343989.36
2017-12-04 01:25:09,-0.09,4000,True,u,120.495,Keeblerfudgestripes,Keeblerfudgestripes,1.32,True,Cheezits,1.23,True,TEST00029,120.495,344618.665,154,344498.17
2017-12-04 01:25:09,-0.19,4000,True,i,12.98,3Musketeers,Butterfinger,2.3,True,3Musketeers,2.11,True,TEST00029,12.98,345136.425,155,345123.445
2017-12-04 01:25:09,-0.28,4000,True,i,55.7100000001,Lollipopred,Reeses,3.0,True,Lollipopred,2.72,True,TEST00029,55.7100000001,345748.385,156,345692.675
2017-12-04 01:25:09,0.54,4000,True,i,86.5950000001,PeanutMMs,RitzBitz2,1.17,True,PeanutMMs,1.71,True,TEST00029,86.5950000001,346358.34,157,346271.745
2017-12-04 01:25:09,-0.07,4000,True,u,12.515,Doritosranch,Doritosranch,1.85,True,Hersheykisses,1.78,True,TEST00029,12.515,346878.32,158,346865.805
2017-12-04 01:25:09,-0.22,4000,True,i,49.93,Whatchamacallit,FamousAmos_small,0.94,True,Whatchamacallit,0.72,True,TEST00029,49.93,347434.335,159,347384.405
2017-12-04 01:25:09,-0.04,4000,True,i,3287.035,Hersheymilk_several,Riprolls,1.57,True,Hersheymilk_several,1.53,True,TEST00029,3287.035,351245.14,160,347958.105
2017-12-04 01:25:09,0.1,4000,True,i,80.36,Granolabar,Milkduds,2.3,True,Granolabar,2.4,True,TEST00029,80.36,351831.11,161,351750.75
2017-12-04 01:25:09,0.83,4000,True,i,3132.345,Oreos,CheesyDoritos,0.74,True,Oreos,1.57,True,TEST00029,3132.345,355466.96,162,352334.615
2017-12-04 01:25:09,-0.01,4000,True,u,61.53,AnimalCrackers,AnimalCrackers,1.98,True,SourSkittles,1.97,True,TEST00029,61.53,356034.925,163,355973.395
2017-12-04 01:25:09,0.23,4000,True,u,11.92,PeanutMMs,PeanutMMs,1.71,True,Cheetos,1.94,True,TEST00029,11.92,356569.9,164,356557.98
2017-12-04 01:25:09,-1.85,4000,True,u,74.055,Doritosranch,Doritosranch,1.85,True,Fritos,0.0,True,TEST00029,74.055,357146.875,165,357072.82
2017-12-04 01:25:09,0.16,4000,True,u,65.16,Cheezits,Cheezits,1.23,True,MrsFields,1.39,True,TEST00029,65.16,357720.86,166,357655.7
2017-12-04 01:25:09,-1.39,4000,True,u,75.6799999999,MrsFields,MrsFields,1.39,True,Fritos,0.0,True,TEST00029,75.6799999999,358300.825,167,358225.145
2017-12-04 01:25:09,0.12,4000,True,i,77.27,MrGoodbar,Hersheymilk_several,1.53,True,MrGoodbar,1.65,True,TEST00029,77.27,358880.79,168,358803.52
2017-12-04 01:25:09,0.02,4000,True,u,16.52,Sourpatch,Sourpatch,1.92,True,Cheetos,1.94,True,TEST00029,16.52,359400.865,169,359384.345
2017-12-04 01:25:09,0.28,4000,True,i,51.8700000001,Funyuns_small,Hersheykisses,1.78,True,Funyuns_small,2.06,True,TEST00029,51.8700000001,359960.81,170,359908.94
2017-12-04 01:25:09,0.1,4000,True,i,24.5100000001,PayDay,PopTartsStrawberry,2.29,True,PayDay,2.39,True,TEST00029,24.5100000001,360488.75,171,360464.24
2017-12-04 01:25:09,0.14,4000,True,u,57.49,3Musketeers,3Musketeers,2.11,True,Goldfish,2.25,True,TEST00029,57.49,361048.935,172,360991.445
2017-12-04 01:25:09,0.46,4000,True,i,99.6149999999,Almondjoy,KitKat_small,1.04,True,Almondjoy,1.5,True,TEST00029,99.6149999999,361656.675,173,361557.06
2017-12-04 01:25:09,0.09,4000,True,i,11.7000000001,TootsieRolls,AnimalCrackers,1.98,True,TootsieRolls,2.07,True,TEST00029,11.7000000001,362171.7,174,362160.0
2017-12-04 01:25:09,0.03,4000,True,u,84.4300000001,3Musketeers,3Musketeers,2.11,True,Milano,2.14,True,TEST00029,84.4300000001,362763.795,175,362679.365
2017-12-04 01:25:09,-0.64,4000,True,i,84.59,BabyRuth,Laffytaffyred_one,2.84,True,BabyRuth,2.2,True,TEST00029,84.59,363355.68,176,363271.09
2017-12-04 01:25:09,0.17,4000,True,u,92.965,Funyuns_small,Funyuns_small,2.06,True,Snickers,2.23,True,TEST00029,92.965,363951.8,177,363858.835
2017-12-04 01:25:09,-0.21,4000,True,u,21.045,AnimalCrackers,AnimalCrackers,1.98,True,Cheese_PeanutButterCrackers,1.77,True,TEST00029,21.045,364481.775,178,364460.73
2017-12-04 01:25:09,0.03,4000,True,i,136.58,WheatThins,RitzBitz2,1.17,True,WheatThins,1.2,True,TEST00029,136.58,365123.74,179,364987.16
2017-12-04 01:25:09,-0.67,4000,True,u,49.925,MrsFields,MrsFields,1.39,True,Whatchamacallit,0.72,True,TEST00029,49.925,365679.695,180,365629.77
2017-12-04 01:25:09,-0.36,4000,True,i,101.475,Cheetos,Butterfinger,2.3,True,Cheetos,1.94,True,TEST00029,101.475,366285.53,181,366184.055
2017-12-04 01:25:09,-1.02,4000,True,u,32.305,Funyuns_small,Funyuns_small,2.06,True,KitKat_small,1.04,True,TEST00029,32.305,366824.41,182,366792.105
2017-12-04 01:25:09,0.34,4000,True,i,131.31,FigNewton_small,Riprolls,1.57,True,FigNewton_small,1.91,True,TEST00029,131.31,367459.63,183,367328.32
2017-12-04 01:25:09,-0.31,4000,True,u,258.085,Ghiradelli_milk_Almonds,Ghiradelli_milk_Almonds,2.61,True,Milkduds,2.3,True,TEST00029,258.085,368226.6,184,367968.515
2017-12-04 01:25:09,0.27,4000,True,u,91.415,Skittles,Skittles,2.12,True,PayDay,2.39,True,TEST00029,91.415,368824.545,185,368733.13
2017-12-04 01:25:09,0.81,4000,True,u,118.11,Whatchamacallit,Whatchamacallit,0.72,True,Hersheymilk_several,1.53,True,TEST00029,118.11,369447.52,186,369329.41
2017-12-04 01:25:09,-0.38,4000,True,u,28.4950000001,Milkduds,Milkduds,2.3,True,Sourpatch,1.92,True,TEST00029,28.4950000001,369980.31,187,369951.815
2017-12-04 01:25:09,1.17,4000,True,i,10.245,RitzBitz2,Fritos,0.0,True,RitzBitz2,1.17,True,TEST00029,10.245,370528.265,188,370518.02
2017-12-04 01:25:09,-0.79,4000,True,i,47.945,Almondjoy,PopTartsStrawberry,2.29,True,Almondjoy,1.5,True,TEST00029,47.945,371133.3,189,371085.355
2017-12-04 01:25:09,0.2,4000,True,u,5.30499999999,Ruffles,Ruffles,1.65,True,Doritosranch,1.85,True,TEST00029,5.30499999999,371660.23,190,371654.925
2017-12-04 01:25:09,-0.05,4000,True,u,39.19,Toberlorone,Toberlorone,2.28,True,Snickers,2.23,True,TEST00029,39.19,372203.24,191,372164.05
2017-12-04 01:25:09,-0.03,4000,True,u,120.515,Toberlorone,Toberlorone,2.28,True,Goldfish,2.25,True,TEST00029,120.515,372860.365,192,372739.85
2017-12-04 01:25:09,-0.83,4000,True,u,142.965,Granolabar,Granolabar,2.4,True,Riprolls,1.57,True,TEST00029,142.965,373512.275,193,373369.31
2017-12-04 01:25:09,0.08,4000,True,i,99.195,MrGoodbar,Oreos,1.57,True,MrGoodbar,1.65,True,TEST00029,99.195,374117.34,194,374018.145
2017-12-04 01:25:09,0.42,4000,True,u,149.69,SourSkittles,SourSkittles,1.97,True,PayDay,2.39,True,TEST00029,149.69,374773.27,195,374623.58
2017-12-04 01:25:09,0.07,4000,True,u,107.375,RiceKrispyTreat_small,RiceKrispyTreat_small,2.65,True,Lollipopred,2.72,True,TEST00029,107.375,375389.32,196,375281.945
2017-12-04 01:25:09,-0.08,4000,True,u,55.9,MilkyWay,MilkyWay,1.84,True,ChipsAhoy_small,1.76,True,TEST00029,55.9,375949.07,197,375893.17
2017-12-04 01:25:09,-0.17,4000,True,i,23.29,TootsieRolls,PringlesRed,2.24,True,TootsieRolls,2.07,True,TEST00029,23.29,376487.17,198,376463.88
2017-12-04 01:25:09,-0.07,4000,True,u,43.9,Oreos,Oreos,1.57,True,Almondjoy,1.5,True,TEST00029,43.9,377090.065,199,377046.165
2017-12-04 01:25:09,-0.94,4000,True,i,34.155,RitzBitz2,3Musketeers,2.11,True,RitzBitz2,1.17,True,TEST00029,34.155,377664.13,200,377629.975
2017-12-04 01:25:09,0.01,4000,True,i,126.66,Butterfinger,PopTartsStrawberry,2.29,True,Butterfinger,2.3,True,TEST00029,126.66,378341.07,201,378214.41
2017-12-04 01:25:09,-0.1,4000,True,i,196.895,SourSkittles,TootsieRolls,2.07,True,SourSkittles,1.97,True,TEST00029,196.895,379042.11,202,378845.215
2017-12-04 01:25:09,0.47,4000,True,i,135.735,Jollyranchergreen,Twix,0.15,True,Jollyranchergreen,0.62,True,TEST00029,135.735,379686.085,203,379550.35
2017-12-04 01:25:09,0.85,4000,True,i,143.63,Goldfish,Chocolate_mm,1.4,True,Goldfish,2.25,True,TEST00029,143.63,380334.04,204,380190.41
2017-12-04 01:25:09,0.03,4000,True,i,74.225,Cheetos,FigNewton_small,1.91,True,Cheetos,1.94,True,TEST00029,74.225,380915.02,205,380840.795
2017-12-04 01:25:09,-0.23,4000,True,i,16.255,Slimjim,Nutterbutter,1.51,True,Slimjim,1.28,True,TEST00029,16.255,381439.965,206,381423.71
2017-12-04 01:25:09,0.9,4000,True,i,89.2450000001,Ghiradelli_milk_Almonds,PeanutMMs,1.71,True,Ghiradelli_milk_Almonds,2.61,True,TEST00029,89.2450000001,382035.99,207,381946.745
2017-12-04 01:25:09,-0.19,4000,True,u,3.47000000003,100grand_small,100grand_small,1.9,True,PeanutMMs,1.71,True,TEST00029,3.47000000003,382544.78,208,382541.31
2017-12-04 01:25:09,-0.92,4000,False,NaN,4005.355,NaN,BabyRuth,2.2,True,Slimjim,1.28,True,TEST00029,4005.355,387059.935,209,383054.58
