date,delta,maxTrialTime,receivedResponse,rsp,rt,selected,stimulus1,stimulus1Bid,stimulus1Loaded,stimulus2,stimulus2Bid,stimulus2Loaded,subjectID,trialDuration,trialEndTime,trialN,trialStartTime
2018-01-02 15:34:35,-0.29,4000,True,u,1021.245,PeanutMMs,PeanutMMs,9.57,True,FlamingCheetos,9.28,True,TEST00061,1021.245,1347.47,0,326.225
2018-01-02 15:34:35,2.02,4000,True,i,66.16,3Musketeers,Milkduds,6.16,True,3Musketeers,8.18,True,TEST00061,66.16,1921.26,1,1855.1
2018-01-02 15:34:35,-5.54,4000,True,i,15.01,Cheese_PeanutButterCrackers,Dots_one,5.91,False,Cheese_PeanutButterCrackers,0.37,False,TEST00061,15.01,2444.235,2,2429.225
2018-01-02 15:34:35,2.17,4000,True,u,119.97,Reeses,Reeses,7.47,True,Riprolls,9.64,True,TEST00061,119.97,3072.4,3,2952.43
2018-01-02 15:34:35,0.12,4000,True,i,152.25,Dots_one,Twix,5.79,True,Dots_one,5.91,True,TEST00061,152.25,3731.39,4,3579.14
2018-01-02 15:34:35,-0.25,4000,True,i,346.015,Jollyranchergreen,Ghiradelli_milk,8.1,True,Jollyranchergreen,7.85,True,TEST00061,346.015,4585.37,5,4239.355
2018-01-02 15:34:35,2.16,4000,True,i,140.28,Crunch,Twix,5.79,True,Crunch,7.95,True,TEST00061,140.28,5233.275,6,5092.995
2018-01-02 15:34:35,1.97,4000,True,u,24.11,Slimjim,Slimjim,0.67,True,Ruffles,2.64,False,TEST00061,24.11,5761.09,7,5736.98
2018-01-02 15:34:35,0.8,4000,True,u,10.225,Cheese_PeanutButterCrackers,Cheese_PeanutButterCrackers,0.37,True,RiceKrispyTreat_small,1.17,False,TEST00061,10.225,6284.075,8,6273.85
2018-01-02 15:34:35,2.03,4000,True,u,87.255,AnimalCrackers,AnimalCrackers,7.06,True,Butterfinger,9.09,True,TEST00061,87.255,6877.1,9,6789.845
2018-01-02 15:34:35,-0.1,4000,True,i,155.34,Goldfish,BabyRuth,1.33,True,Goldfish,1.23,True,TEST00061,155.34,7536.215,10,7380.875
2018-01-02 15:34:35,-5.16,4000,True,u,26.025,Whatchamacallit,Whatchamacallit,8.16,True,Funyuns_small,3.0,False,TEST00061,26.025,8069.015,11,8042.99
2018-01-02 15:34:35,0.08,4000,True,i,125.07,Doritosranch,Cheezits,5.62,True,Doritosranch,5.7,True,TEST00061,125.07,8698.165,12,8573.095
2018-01-02 15:34:35,-0.02,4000,True,i,20.435,starburst,Hersheykisses,5.22,True,starburst,5.2,True,TEST00061,20.435,9222.92,13,9202.485
2018-01-02 15:34:35,0.4,4000,True,i,69.57,Ghiradelli_milk,PopTartsStrawberry,7.7,True,Ghiradelli_milk,8.1,True,TEST00061,69.57,9852.115,14,9782.545
2018-01-02 15:34:35,-5.31,4000,True,u,103.15,Crunch,Crunch,7.95,True,Ruffles,2.64,True,TEST00061,103.15,10461.095,15,10357.945
2018-01-02 15:34:35,0.07,4000,True,u,13.32,PeanutMMs,PeanutMMs,9.57,True,PringlesRed,9.64,False,TEST00061,13.32,10979.85,16,10966.53
2018-01-02 15:34:35,-6.01,4000,True,i,137.285,Goldfish,Laffytaffyred_one,7.24,True,Goldfish,1.23,True,TEST00061,137.285,11622.89,17,11485.605
2018-01-02 15:34:35,0.61,4000,True,u,46.92,Doritosranch,Doritosranch,5.7,True,WheatThins,6.31,True,TEST00061,46.92,12177.945,18,12131.025
2018-01-02 15:34:35,0.94,4000,True,i,104.14,Milkduds,Hersheykisses,5.22,True,Milkduds,6.16,True,TEST00061,104.14,12788.985,19,12684.845
2018-01-02 15:34:35,1.69,4000,True,u,35.12,Cheese_PeanutButterCrackers,Cheese_PeanutButterCrackers,0.37,True,CheesyDoritos,2.06,True,TEST00061,35.12,13332.91,20,13297.79
2018-01-02 15:34:35,-0.12,4000,True,u,119.4,Reeses,Reeses,7.47,True,Keeblerfudgestripes,7.35,True,TEST00061,119.4,13961.925,21,13842.525
2018-01-02 15:34:35,-1.43,4000,True,i,146.06,Jollyranchergreen,FlamingCheetos,9.28,True,Jollyranchergreen,7.85,True,TEST00061,146.06,14611.695,22,14465.635
2018-01-02 15:34:35,0.0,4000,True,i,94.3,Riprolls,PringlesRed,9.64,True,Riprolls,9.64,True,TEST00061,94.3,15213.84,23,15119.54
2018-01-02 15:34:35,-1.52,4000,True,u,121.88,Sourpatch,Sourpatch,4.25,True,100grand_small,2.73,True,TEST00061,121.88,15840.855,24,15718.975
2018-01-02 15:34:36,4.84,4000,True,u,29.56,Sourpatch,Sourpatch,4.25,True,Butterfinger,9.09,True,TEST00061,29.56,16376.66,25,16347.1
2018-01-02 15:34:36,-1.46,4000,True,i,64.435,Granolabar,Milkduds,6.16,True,Granolabar,4.7,True,TEST00061,64.435,16948.77,26,16884.335
2018-01-02 15:34:36,0.58,4000,True,i,103.75,Snickers,3Musketeers,8.18,True,Snickers,8.76,True,TEST00061,103.75,17559.665,27,17455.915
2018-01-02 15:34:36,4.7,4000,True,u,49.615,Lollipopred,Lollipopred,4.06,True,Snickers,8.76,True,TEST00061,49.615,18113.665,28,18064.05
2018-01-02 15:34:36,-0.79,4000,True,u,109.75,Oreos,Oreos,1.0,True,Chocolate_mm,0.21,True,TEST00061,109.75,18729.61,29,18619.86
2018-01-02 15:34:36,0.16,4000,True,i,174.305,Cheese_PeanutButterCrackers,Chocolate_mm,0.21,True,Cheese_PeanutButterCrackers,0.37,True,TEST00061,174.305,19412.685,30,19238.38
2018-01-02 15:34:36,5.64,4000,True,i,707.54,PayDay,Skittles,0.42,True,PayDay,6.06,True,TEST00061,707.54,20628.71,31,19921.17
2018-01-02 15:34:36,0.36,4000,True,u,567.635,FlamingCheetos,FlamingCheetos,9.28,True,KitKat_small,9.64,True,TEST00061,567.635,21703.675,32,21136.04
2018-01-02 15:34:36,1.54,4000,True,u,75.015,PopTartsStrawberry,PopTartsStrawberry,7.7,True,Cheetos,9.24,True,TEST00061,75.015,22285.335,33,22210.32
2018-01-02 15:34:36,5.18,4000,True,i,72.41,PopTartsStrawberry,TeddyGrahamschocolate,2.52,True,PopTartsStrawberry,7.7,True,TEST00061,72.41,22863.37,34,22790.96
2018-01-02 15:34:36,1.41,4000,True,i,140.825,Snickers,Keeblerfudgestripes,7.35,True,Snickers,8.76,True,TEST00061,140.825,23515.43,35,23374.605
2018-01-02 15:34:36,0.87,4000,True,u,97.41,3Musketeers,3Musketeers,8.18,True,MrsFields,9.05,True,TEST00061,97.41,24117.43,36,24020.02
2018-01-02 15:34:36,0.12,4000,True,u,633.555,TeddyGrahamschocolate,TeddyGrahamschocolate,2.52,True,Ruffles,2.64,True,TEST00061,633.555,25256.405,37,24622.85
2018-01-02 15:34:36,-0.1,4000,True,i,1050.72,PayDay,Milkduds,6.16,True,PayDay,6.06,True,TEST00061,1050.72,26814.37,38,25763.65
2018-01-02 15:34:36,-1.81,4000,True,u,143.88,PayDay,PayDay,6.06,True,Sourpatch,4.25,True,TEST00061,143.88,27463.31,39,27319.43
2018-01-02 15:34:36,-5.37,4000,True,i,111.005,100grand_small,Ghiradelli_milk,8.1,True,100grand_small,2.73,True,TEST00061,111.005,28081.29,40,27970.285
2018-01-02 15:34:36,0.2,4000,False,NaN,4005.385,NaN,KitKat_small,9.64,True,RitzBitz2,9.84,True,TEST00061,4005.385,32595.205,41,28589.82
2018-01-02 15:34:36,0.21,4000,False,NaN,4005.42,NaN,Doritosranch,5.7,True,Dots_one,5.91,True,TEST00061,4005.42,37101.555,42,33096.135
2018-01-02 15:34:36,1.45,4000,True,u,149.29,Nutterbutter,Nutterbutter,7.64,True,Butterfinger,9.09,True,TEST00061,149.29,37757.01,43,37607.72
2018-01-02 15:34:36,-0.33,4000,False,NaN,4000.225,NaN,SourSkittles,6.24,True,Dots_one,5.91,True,TEST00061,4000.225,42267.125,44,38266.9
2018-01-02 15:34:36,-0.27,4000,True,i,84.47,100grand_small,Funyuns_small,3.0,True,100grand_small,2.73,True,TEST00061,84.47,42857.425,45,42772.955
2018-01-02 15:34:36,0.11,4000,True,u,35.24,Milano,Milano,0.56,True,Slimjim,0.67,True,TEST00061,35.24,43401.62,46,43366.38
2018-01-02 15:34:36,-5.18,4000,True,i,121.22,Almondjoy,Nutterbutter,7.64,True,Almondjoy,2.46,True,TEST00061,121.22,44031.625,47,43910.405
2018-01-02 15:34:36,-1.58,4000,True,u,2414.815,MrsFields,MrsFields,9.05,True,Reeses,7.47,True,TEST00061,2414.815,46950.455,48,44535.64
2018-01-02 15:34:36,0.48,4000,True,i,161.23,Hersheykisses,Laysclassic,4.74,True,Hersheykisses,5.22,True,TEST00061,161.23,47616.465,49,47455.235
2018-01-02 15:34:36,0.62,4000,True,i,21.085,SourSkittles,Cheezits,5.62,True,SourSkittles,6.24,True,TEST00061,21.085,48142.32,50,48121.235
2018-01-02 15:34:36,1.12,4000,True,u,147.075,Chocolate_mm,Chocolate_mm,0.21,True,BabyRuth,1.33,True,TEST00061,147.075,48794.41,51,48647.335
2018-01-02 15:34:36,0.83,4000,True,i,160.135,PeanutMMs,Fritos,8.74,True,PeanutMMs,9.57,True,TEST00061,160.135,49463.38,52,49303.245
2018-01-02 15:34:36,0.77,4000,True,i,59.92,BabyRuth,Milano,0.56,True,BabyRuth,1.33,True,TEST00061,59.92,50027.335,53,49967.415
2018-01-02 15:34:36,-5.97,4000,True,u,73.615,Ghiradelli_milk_Almonds,Ghiradelli_milk_Almonds,7.28,True,FamousAmos_small,1.31,True,TEST00061,73.615,50625.34,54,50551.725
2018-01-02 15:34:36,-0.31,4000,True,i,172.98,Nutterbutter,Crunch,7.95,True,Nutterbutter,7.64,True,TEST00061,172.98,51303.165,55,51130.185
2018-01-02 15:34:36,-4.56,4000,True,u,15.02,FlamingCheetos,FlamingCheetos,9.28,True,TootsieRolls,4.72,True,TEST00061,15.02,51827.07,56,51812.05
2018-01-02 15:34:36,-4.42,4000,True,i,187.995,Hersheykisses,KitKat_small,9.64,True,Hersheykisses,5.22,True,TEST00061,187.995,52576.245,57,52388.25
2018-01-02 15:34:36,-0.29,4000,True,u,1584.425,Nutterbutter,Nutterbutter,7.64,True,Keeblerfudgestripes,7.35,True,TEST00061,1584.425,54665.235,58,53080.81
2018-01-02 15:34:36,-0.25,4000,True,i,103.3,PayDay,WheatThins,6.31,True,PayDay,6.06,True,TEST00061,103.3,55277.085,59,55173.785
2018-01-02 15:34:36,0.75,4000,True,u,21.85,MrGoodbar,MrGoodbar,6.31,True,AnimalCrackers,7.06,True,TEST00061,21.85,55807.885,60,55786.035
2018-01-02 15:34:36,-0.69,4000,True,i,145.905,Reeses,Whatchamacallit,8.16,True,Reeses,7.47,True,TEST00061,145.905,56458.07,61,56312.165
2018-01-02 15:34:36,-3.5,4000,True,u,20.91,Toberlorone,Toberlorone,4.06,True,Milano,0.56,True,TEST00061,20.91,56983.835,62,56962.925
2018-01-02 15:34:36,1.54,4000,True,i,142.83,Riprolls,Ghiradelli_milk,8.1,True,Riprolls,9.64,True,TEST00061,142.83,57681.015,63,57538.185
2018-01-02 15:34:36,0.81,4000,True,i,95.29,Goldfish,Skittles,0.42,True,Goldfish,1.23,True,TEST00061,95.29,58284.975,64,58189.685
2018-01-02 15:34:36,0.21,4000,True,u,719.11,TeddyGrahamschocolate,TeddyGrahamschocolate,2.52,True,100grand_small,2.73,True,TEST00061,719.11,59511.02,65,58791.91
2018-01-02 15:34:36,0.64,4000,False,NaN,4002.395,NaN,AnimalCrackers,7.06,True,PopTartsStrawberry,7.7,True,TEST00061,4002.395,64021.0,66,60018.605
2018-01-02 15:34:36,-0.22,4000,True,u,2060.14,Ghiradelli_milk_Almonds,Ghiradelli_milk_Almonds,7.28,True,AnimalCrackers,7.06,True,TEST00061,2060.14,66586.31,67,64526.17
2018-01-02 15:34:36,0.98,4000,True,u,280.165,Hersheymilk_several,Hersheymilk_several,3.08,True,Toberlorone,4.06,True,TEST00061,280.165,67374.925,68,67094.76
2018-01-02 15:34:36,2.0,4000,True,u,23.285,Nutterbutter,Nutterbutter,7.64,True,KitKat_small,9.64,True,TEST00061,23.285,67902.795,69,67879.51
2018-01-02 15:34:36,1.1,4000,True,u,20.745,3Musketeers,3Musketeers,8.18,True,FlamingCheetos,9.28,True,TEST00061,20.745,68481.725,70,68460.98
2018-01-02 15:34:36,-0.88,4000,True,i,54.085,Snickers,Riprolls,9.64,True,Snickers,8.76,True,TEST00061,54.085,69042.835,71,68988.75
2018-01-02 15:34:36,-0.44,4000,True,u,107.695,Oreos,Oreos,1.0,True,Milano,0.56,True,TEST00061,107.695,69654.725,72,69547.03
2018-01-02 15:34:36,-1.94,4000,True,i,55.26,PopTartsStrawberry,PringlesRed,9.64,True,PopTartsStrawberry,7.7,True,TEST00061,55.26,70218.78,73,70163.52
2018-01-02 15:34:36,0.0,4000,True,u,281.845,Riprolls,Riprolls,9.64,True,KitKat_small,9.64,True,TEST00061,281.845,71023.77,74,70741.925
2018-01-02 15:34:36,-5.68,4000,True,u,68.045,Milkduds,Milkduds,6.16,True,MilkyWay,0.48,True,TEST00061,68.045,71600.755,75,71532.71
2018-01-02 15:34:36,-6.02,4000,True,i,184.52,BabyRuth,Keeblerfudgestripes,7.35,True,BabyRuth,1.33,True,TEST00061,184.52,72288.715,76,72104.195
2018-01-02 15:34:36,3.1,4000,True,u,413.97,TeddyGrahamschocolate,TeddyGrahamschocolate,2.52,True,Cheezits,5.62,True,TEST00061,413.97,73208.63,77,72794.66
2018-01-02 15:34:36,0.5,4000,True,u,214.13,TootsieRolls,TootsieRolls,4.72,True,Hersheykisses,5.22,True,TEST00061,214.13,73928.605,78,73714.475
2018-01-02 15:34:36,4.54,4000,True,u,245.34,Granolabar,Granolabar,4.7,True,Cheetos,9.24,True,TEST00061,245.34,74680.565,79,74435.225
2018-01-02 15:34:36,2.58,4000,True,u,81.55,Skittles,Skittles,0.42,True,Funyuns_small,3.0,True,TEST00061,81.55,75266.015,80,75184.465
2018-01-02 15:34:36,2.04,4000,True,i,549.915,TeddyGrahamschocolate,MilkyWay,0.48,True,TeddyGrahamschocolate,2.52,True,TEST00061,549.915,76322.0,81,75772.085
2018-01-02 15:34:36,-0.5,4000,True,u,166.745,RiceKrispyTreat_small,RiceKrispyTreat_small,1.17,True,Slimjim,0.67,True,TEST00061,166.745,76992.51,82,76825.765
2018-01-02 15:34:36,-1.39,4000,True,u,134.16,CheesyDoritos,CheesyDoritos,2.06,True,Slimjim,0.67,True,TEST00061,134.16,77635.425,83,77501.265
2018-01-02 15:34:36,-0.75,4000,True,u,49.305,CheesyDoritos,CheesyDoritos,2.06,True,FamousAmos_small,1.31,True,TEST00061,49.305,78193.465,84,78144.16
2018-01-02 15:34:36,-0.48,4000,True,u,39.14,starburst,starburst,5.2,True,TootsieRolls,4.72,True,TEST00061,39.14,78771.425,85,78732.285
2018-01-02 15:34:36,5.31,4000,True,i,69.78,MrGoodbar,Oreos,1.0,True,MrGoodbar,6.31,True,TEST00061,69.78,79386.37,86,79316.59
2018-01-02 15:34:36,-0.88,4000,False,NaN,4005.61,NaN,Cheezits,5.62,True,Laysclassic,4.74,True,TEST00061,4005.61,83896.03,87,79890.42
2018-01-02 15:34:36,1.11,4000,True,i,2060.81,MrGoodbar,starburst,5.2,True,MrGoodbar,6.31,True,TEST00061,2060.81,86462.165,88,84401.355
2018-01-02 15:34:36,-2.0,4000,True,u,826.62,Cheetos,Cheetos,9.24,True,Laffytaffyred_one,7.24,True,TEST00061,826.62,87797.085,89,86970.465
2018-01-02 15:34:36,0.59,4000,True,u,39.975,MrsFields,MrsFields,9.05,True,KitKat_small,9.64,True,TEST00061,39.975,88345.02,90,88305.045
2018-01-02 15:34:36,0.11,4000,True,u,39.705,Cheese_PeanutButterCrackers,Cheese_PeanutButterCrackers,0.37,True,MilkyWay,0.48,True,TEST00061,39.705,88931.99,91,88892.285
2018-01-02 15:34:36,-2.1,4000,True,u,281.02,Whatchamacallit,Whatchamacallit,8.16,True,PayDay,6.06,True,TEST00061,281.02,89752.935,92,89471.915
2018-01-02 15:34:36,4.68,4000,True,i,762.98,Fritos,Toberlorone,4.06,True,Fritos,8.74,True,TEST00061,762.98,91024.965,93,90261.985
2018-01-02 15:34:36,-3.39,4000,True,i,111.67,Slimjim,Lollipopred,4.06,True,Slimjim,0.67,True,TEST00061,111.67,91640.86,94,91529.19
2018-01-02 15:34:36,-0.19,4000,True,u,135.11,Sourpatch,Sourpatch,4.25,True,Lollipopred,4.06,True,TEST00061,135.11,92283.835,95,92148.725
2018-01-02 15:34:36,0.29,4000,True,u,95.17,Snickers,Snickers,8.76,True,MrsFields,9.05,True,TEST00061,95.17,92887.94,96,92792.77
2018-01-02 15:34:36,-0.73,4000,False,NaN,4005.36,NaN,CheesyDoritos,2.06,True,BabyRuth,1.33,True,TEST00061,4005.36,97402.335,97,93396.975
2018-01-02 15:34:36,-1.52,4000,True,i,912.7,TootsieRolls,SourSkittles,6.24,True,TootsieRolls,4.72,True,TEST00061,912.7,98819.855,98,97907.155
2018-01-02 15:34:36,-0.07,4000,True,u,302.845,WheatThins,WheatThins,6.31,True,SourSkittles,6.24,True,TEST00061,302.845,99632.795,99,99329.95
2018-01-02 15:34:36,1.07,4000,True,u,257.5,TootsieRolls,TootsieRolls,4.72,True,Twix,5.79,True,TEST00061,257.5,100393.78,100,100136.28
2018-01-02 15:34:36,0.33,4000,True,u,120.57,Cheetos,Cheetos,9.24,True,PeanutMMs,9.57,True,TEST00061,120.57,101021.725,101,100901.155
2018-01-02 15:34:36,0.31,4000,True,u,81.275,Fritos,Fritos,8.74,True,MrsFields,9.05,True,TEST00061,81.275,101607.125,102,101525.85
2018-01-02 15:34:37,1.57,4000,True,i,841.01,WheatThins,Laysclassic,4.74,True,WheatThins,6.31,True,TEST00061,841.01,102956.75,103,102115.74
2018-01-02 15:34:37,2.04,4000,True,u,186.305,Skittles,Skittles,0.42,True,Almondjoy,2.46,True,TEST00061,186.305,103649.66,104,103463.355
2018-01-02 15:34:37,-0.23,4000,True,u,2340.835,PopTartsStrawberry,PopTartsStrawberry,7.7,True,Reeses,7.47,True,TEST00061,2340.835,106495.93,105,104155.095
2018-01-02 15:34:37,0.1,4000,True,i,909.73,Ruffles,FigNewton_small,2.54,True,Ruffles,2.64,True,TEST00061,909.73,107910.555,106,107000.825
2018-01-02 15:34:37,0.5,4000,True,i,275.985,Granolabar,ChipsAhoy_small,4.2,True,Granolabar,4.7,True,TEST00061,275.985,108690.435,107,108414.45
2018-01-02 15:34:37,1.62,4000,True,i,1682.5,Laffytaffyred_one,Cheezits,5.62,True,Laffytaffyred_one,7.24,True,TEST00061,1682.5,110876.76,108,109194.26
2018-01-02 15:34:37,1.73,4000,True,u,1273.37,Lollipopred,Lollipopred,4.06,True,Twix,5.79,True,TEST00061,1273.37,112658.34,109,111384.97
2018-01-02 15:34:37,0.56,4000,True,u,1307.565,3Musketeers,3Musketeers,8.18,True,Fritos,8.74,True,TEST00061,1307.565,114470.26,110,113162.695
2018-01-02 15:34:37,-0.18,4000,True,u,1591.495,Ruffles,Ruffles,2.64,True,Almondjoy,2.46,True,TEST00061,1591.495,116569.95,111,114978.455
2018-01-02 15:34:37,1.48,4000,True,u,2764.63,Whatchamacallit,Whatchamacallit,8.16,True,KitKat_small,9.64,True,TEST00061,2764.63,119837.895,112,117073.265
2018-01-02 15:34:37,-0.19,4000,True,u,3390.875,Milano,Milano,0.56,True,Cheese_PeanutButterCrackers,0.37,True,TEST00061,3390.875,123733.85,113,120342.975
2018-01-02 15:34:37,2.45,4000,True,u,249.515,WheatThins,WheatThins,6.31,True,Snickers,8.76,True,TEST00061,249.515,124487.705,114,124238.19
2018-01-02 15:34:37,0.6,4000,True,i,3447.22,RitzBitz2,Cheetos,9.24,True,RitzBitz2,9.84,True,TEST00061,3447.22,128440.335,115,124993.115
2018-01-02 15:34:37,-0.02,4000,False,NaN,4005.14,NaN,Laysclassic,4.74,True,TootsieRolls,4.72,True,TEST00061,4005.14,132951.135,116,128945.995
2018-01-02 15:34:37,-4.85,4000,True,i,728.58,ChipsAhoy_small,MrsFields,9.05,True,ChipsAhoy_small,4.2,True,TEST00061,728.58,134185.335,117,133456.755
2018-01-02 15:34:37,0.06,4000,True,u,3375.81,Skittles,Skittles,0.42,True,MilkyWay,0.48,True,TEST00061,3375.81,138065.01,118,134689.2
2018-01-02 15:34:37,-0.2,4000,True,u,931.325,RitzBitz2,RitzBitz2,9.84,True,PringlesRed,9.64,True,TEST00061,931.325,139505.11,119,138573.785
2018-01-02 15:34:37,5.31,4000,True,u,769.62,FigNewton_small,FigNewton_small,2.54,True,Jollyranchergreen,7.85,True,TEST00061,769.62,140780.93,120,140011.31
2018-01-02 15:34:37,-1.71,4000,True,u,2839.145,Dots_one,Dots_one,5.91,True,ChipsAhoy_small,4.2,True,TEST00061,2839.145,144128.77,121,141289.625
2018-01-02 15:34:37,1.54,4000,True,i,5.39000000001,Toberlorone,TeddyGrahamschocolate,2.52,True,Toberlorone,4.06,True,TEST00061,5.39000000001,144641.585,122,144636.195
2018-01-02 15:34:37,-1.85,4000,True,u,2068.51,Hersheymilk_several,Hersheymilk_several,3.08,True,Goldfish,1.23,True,TEST00061,2068.51,147213.79,123,145145.28
2018-01-02 15:34:37,0.97,4000,True,u,239.295,MrGoodbar,MrGoodbar,6.31,True,Ghiradelli_milk_Almonds,7.28,True,TEST00061,239.295,147961.65,124,147722.355
2018-01-02 15:34:37,5.58,4000,True,u,504.33,Chocolate_mm,Chocolate_mm,0.21,True,Twix,5.79,True,TEST00061,504.33,148973.46,125,148469.13
2018-01-02 15:34:37,-0.19,4000,True,i,274.11,Toberlorone,Sourpatch,4.25,True,Toberlorone,4.06,True,TEST00061,274.11,149753.57,126,149479.46
2018-01-02 15:34:37,-0.17,4000,True,u,880.25,RiceKrispyTreat_small,RiceKrispyTreat_small,1.17,True,Oreos,1.0,True,TEST00061,880.25,151139.375,127,150259.125
2018-01-02 15:34:37,0.04,4000,True,i,3078.395,Ghiradelli_milk_Almonds,Laffytaffyred_one,7.24,True,Ghiradelli_milk_Almonds,7.28,True,TEST00061,3078.395,154723.315,128,151644.92
2018-01-02 15:34:37,3.47,4000,True,i,45.205,Granolabar,Goldfish,1.23,True,Granolabar,4.7,True,TEST00061,45.205,155275.33,129,155230.125
2018-01-02 15:34:37,3.16,4000,True,i,183.215,Doritosranch,FigNewton_small,2.54,True,Doritosranch,5.7,True,TEST00061,183.215,155991.3,130,155808.085
2018-01-02 15:34:37,-1.12,4000,True,i,31.125,Hersheymilk_several,ChipsAhoy_small,4.2,True,Hersheymilk_several,3.08,True,TEST00061,31.125,156531.27,131,156500.145
2018-01-02 15:34:37,-0.86,4000,True,u,763.305,PayDay,PayDay,6.06,True,starburst,5.2,True,TEST00061,763.305,157839.3,132,157075.995
2018-01-02 15:34:37,3.2,4000,True,u,3492.83,Oreos,Oreos,1.0,True,ChipsAhoy_small,4.2,True,TEST00061,3492.83,161836.12,133,158343.29
2018-01-02 15:34:37,-0.35,4000,False,NaN,4001.35,NaN,Hersheymilk_several,3.08,True,100grand_small,2.73,True,TEST00061,4001.35,166342.715,134,162341.365
2018-01-02 15:34:37,3.08,4000,True,i,3561.645,Sourpatch,RiceKrispyTreat_small,1.17,True,Sourpatch,4.25,True,TEST00061,3561.645,170408.815,135,166847.17
2018-01-02 15:34:37,1.17,4000,True,i,197.03,Dots_one,Laysclassic,4.74,True,Dots_one,5.91,True,TEST00061,197.03,171114.445,136,170917.415
2018-01-02 15:34:37,0.21,4000,True,i,435.22,Skittles,Chocolate_mm,0.21,True,Skittles,0.42,True,TEST00061,435.22,172058.515,137,171623.295
2018-01-02 15:34:37,-2.19,4000,True,i,930.725,Dots_one,Ghiradelli_milk,8.1,True,Dots_one,5.91,True,TEST00061,930.725,173499.41,138,172568.685
2018-01-02 15:34:37,0.15,4000,True,i,1658.095,Cheetos,Butterfinger,9.09,True,Cheetos,9.24,True,TEST00061,1658.095,175661.36,139,174003.265
2018-01-02 15:34:37,-0.25,4000,True,u,2608.13,Slimjim,Slimjim,0.67,True,Skittles,0.42,True,TEST00061,2608.13,178773.23,140,176165.1
2018-01-02 15:34:37,1.84,4000,True,u,88.16,Hersheykisses,Hersheykisses,5.22,True,AnimalCrackers,7.06,True,TEST00061,88.16,179369.065,141,179280.905
2018-01-02 15:34:37,-0.83,4000,True,u,110.49,FamousAmos_small,FamousAmos_small,1.31,True,MilkyWay,0.48,True,TEST00061,110.49,179987.095,142,179876.605
2018-01-02 15:34:37,0.27,4000,True,i,66.295,MilkyWay,Chocolate_mm,0.21,True,MilkyWay,0.48,True,TEST00061,66.295,180559.88,143,180493.585
2018-01-02 15:34:37,-0.15,4000,True,i,986.69,Milkduds,WheatThins,6.31,True,Milkduds,6.16,True,TEST00061,986.69,182065.815,144,181079.125
2018-01-02 15:34:37,1.73,4000,True,u,73.31,Oreos,Oreos,1.0,True,100grand_small,2.73,True,TEST00061,73.31,182647.975,145,182574.665
2018-01-02 15:34:37,-1.58,4000,True,u,729.63,Ghiradelli_milk_Almonds,Ghiradelli_milk_Almonds,7.28,True,Doritosranch,5.7,True,TEST00061,729.63,183884.005,146,183154.375
2018-01-02 15:34:37,-1.99,4000,True,u,1625.275,RitzBitz2,RitzBitz2,9.84,True,Jollyranchergreen,7.85,True,TEST00061,1625.275,186016.915,147,184391.64
2018-01-02 15:34:37,-1.52,4000,False,NaN,4005.385,NaN,Lollipopred,4.06,True,FigNewton_small,2.54,True,TEST00061,4005.385,190530.73,148,186525.345
2018-01-02 15:34:37,0.48,4000,True,u,1328.03,Snickers,Snickers,8.76,True,Cheetos,9.24,True,TEST00061,1328.03,192364.52,149,191036.49
2018-01-02 15:34:37,-5.1,4000,True,i,266.23,Hersheymilk_several,3Musketeers,8.18,True,Hersheymilk_several,3.08,True,TEST00061,266.23,193138.55,150,192872.32
2018-01-02 15:34:37,0.75,4000,True,i,814.385,Ghiradelli_milk,Keeblerfudgestripes,7.35,True,Ghiradelli_milk,8.1,True,TEST00061,814.385,194461.62,151,193647.235
2018-01-02 15:34:37,-0.35,4000,True,u,970.05,Butterfinger,Butterfinger,9.09,True,Fritos,8.74,True,TEST00061,970.05,195935.55,152,194965.5
2018-01-02 15:34:37,-1.7,4000,True,i,164.52,Funyuns_small,Granolabar,4.7,True,Funyuns_small,3.0,True,TEST00061,164.52,196604.45,153,196439.93
2018-01-02 15:34:37,0.93,4000,True,u,1155.83,MrGoodbar,MrGoodbar,6.31,True,Laffytaffyred_one,7.24,True,TEST00061,1155.83,198266.46,154,197110.63
2018-01-02 15:34:37,5.89,4000,True,u,198.57,RiceKrispyTreat_small,RiceKrispyTreat_small,1.17,True,AnimalCrackers,7.06,True,TEST00061,198.57,198973.345,155,198774.775
2018-01-02 15:34:37,1.83,4000,True,i,1333.77,Funyuns_small,RiceKrispyTreat_small,1.17,True,Funyuns_small,3.0,True,TEST00061,1333.77,200813.36,156,199479.59
2018-01-02 15:34:37,-1.62,4000,True,u,74.085,PeanutMMs,PeanutMMs,9.57,True,Crunch,7.95,True,TEST00061,74.085,201395.98,157,201321.895
2018-01-02 15:34:37,-5.41,4000,True,u,739.645,Reeses,Reeses,7.47,True,CheesyDoritos,2.06,True,TEST00061,739.645,202644.97,158,201905.325
2018-01-02 15:34:37,1.33,4000,True,u,928.4,MrGoodbar,MrGoodbar,6.31,True,Nutterbutter,7.64,True,TEST00061,928.4,204082.2,159,203153.8
2018-01-02 15:34:37,4.14,4000,True,u,71.105,Doritosranch,Doritosranch,5.7,True,RitzBitz2,9.84,True,TEST00061,71.105,204662.025,160,204590.92
2018-01-02 15:34:37,4.02,4000,True,i,202.46,PringlesRed,Cheezits,5.62,True,PringlesRed,9.64,True,TEST00061,202.46,205368.075,161,205165.615
2018-01-02 15:34:37,-0.19,4000,True,i,142.005,Butterfinger,FlamingCheetos,9.28,True,Butterfinger,9.09,True,TEST00061,142.005,206016.035,162,205874.03
2018-01-02 15:34:37,-0.2,4000,True,u,62.23,RitzBitz2,RitzBitz2,9.84,True,Riprolls,9.64,True,TEST00061,62.23,206586.94,163,206524.71
2018-01-02 15:34:37,-2.0,4000,True,u,117.075,FlamingCheetos,FlamingCheetos,9.28,True,Ghiradelli_milk_Almonds,7.28,True,TEST00061,117.075,207224.985,164,207107.91
2018-01-02 15:34:37,-2.5,4000,True,i,334.235,SourSkittles,Fritos,8.74,True,SourSkittles,6.24,True,TEST00061,334.235,208063.025,165,207728.79
2018-01-02 15:34:37,0.64,4000,True,u,119.325,Lollipopred,Lollipopred,4.06,True,Granolabar,4.7,True,TEST00061,119.325,208689.945,166,208570.62
2018-01-02 15:34:37,0.06,4000,True,u,229.36,Ghiradelli_milk,Ghiradelli_milk,8.1,True,Whatchamacallit,8.16,True,TEST00061,229.36,209423.84,167,209194.48
2018-01-02 15:34:38,-2.22,4000,True,u,264.34,PeanutMMs,PeanutMMs,9.57,True,Keeblerfudgestripes,7.35,True,TEST00061,264.34,210196.8,168,209932.46
2018-01-02 15:34:38,-4.83,4000,True,i,59.39,Laysclassic,PeanutMMs,9.57,True,Laysclassic,4.74,True,TEST00061,59.39,210764.605,169,210705.215
2018-01-02 15:34:38,-5.64,4000,True,u,711.89,WheatThins,WheatThins,6.31,True,Slimjim,0.67,True,TEST00061,711.89,211989.86,170,211277.97
2018-01-02 15:34:38,0.67,4000,True,u,1369.725,Ghiradelli_milk_Almonds,Ghiradelli_milk_Almonds,7.28,True,Crunch,7.95,True,TEST00061,1369.725,213868.65,171,212498.925
2018-01-02 15:34:38,0.23,4000,True,u,1196.735,Laffytaffyred_one,Laffytaffyred_one,7.24,True,Reeses,7.47,True,TEST00061,1196.735,215574.7,172,214377.965
2018-01-02 15:34:38,-3.14,4000,True,u,345.43,starburst,starburst,5.2,True,CheesyDoritos,2.06,True,TEST00061,345.43,216424.53,173,216079.1
2018-01-02 15:34:38,0.06,4000,False,NaN,4005.045,NaN,Almondjoy,2.46,True,TeddyGrahamschocolate,2.52,True,TEST00061,4005.045,220937.655,174,216932.61
2018-01-02 15:34:38,0.61,4000,True,i,55.835,Jollyranchergreen,Laffytaffyred_one,7.24,True,Jollyranchergreen,7.85,True,TEST00061,55.835,221499.38,175,221443.545
2018-01-02 15:34:38,0.31,4000,True,i,1771.345,Whatchamacallit,Jollyranchergreen,7.85,True,Whatchamacallit,8.16,True,TEST00061,1771.345,223790.19,176,222018.845
2018-01-02 15:34:38,-0.17,4000,False,NaN,4002.03,NaN,Twix,5.79,True,Cheezits,5.62,True,TEST00061,4002.03,228300.26,177,224298.23
2018-01-02 15:34:38,2.43,4000,True,u,160.825,Chocolate_mm,Chocolate_mm,0.21,True,Ruffles,2.64,True,TEST00061,160.825,228966.985,178,228806.16
2018-01-02 15:34:38,-4.44,4000,True,u,1408.215,Riprolls,Riprolls,9.64,True,starburst,5.2,True,TEST00061,1408.215,230879.01,179,229470.795
2018-01-02 15:34:38,-1.46,4000,True,u,936.475,PringlesRed,PringlesRed,9.64,True,3Musketeers,8.18,True,TEST00061,936.475,232319.665,180,231383.19
2018-01-02 15:34:38,-0.18,4000,True,i,1289.445,PayDay,SourSkittles,6.24,True,PayDay,6.06,True,TEST00061,1289.445,234111.875,181,232822.43
2018-01-02 15:34:38,-1.56,4000,True,i,271.44,Ruffles,ChipsAhoy_small,4.2,True,Ruffles,2.64,True,TEST00061,271.44,234891.765,182,234620.325
2018-01-02 15:34:38,-1.1,4000,True,i,2277.41,Fritos,RitzBitz2,9.84,True,Fritos,8.74,True,TEST00061,2277.41,237674.71,183,235397.3
2018-01-02 15:34:38,0.45,4000,True,i,1047.47,Granolabar,Sourpatch,4.25,True,Granolabar,4.7,True,TEST00061,1047.47,239226.5,184,238179.03
2018-01-02 15:34:38,0.37,4000,True,u,71.66,Twix,Twix,5.79,True,Milkduds,6.16,True,TEST00061,71.66,239802.525,185,239730.865
2018-01-02 15:34:38,0.21,4000,True,i,326.995,Whatchamacallit,Crunch,7.95,True,Whatchamacallit,8.16,True,TEST00061,326.995,240638.585,186,240311.59
2018-01-02 15:34:38,-3.41,4000,True,i,1723.15,FamousAmos_small,TootsieRolls,4.72,True,FamousAmos_small,1.31,True,TEST00061,1723.15,242870.335,187,241147.185
2018-01-02 15:34:38,-0.46,4000,True,u,413.105,Funyuns_small,Funyuns_small,3.0,True,FigNewton_small,2.54,True,TEST00061,413.105,243792.22,188,243379.115
2018-01-02 15:34:38,-0.16,4000,True,u,804.74,BabyRuth,BabyRuth,1.33,True,RiceKrispyTreat_small,1.17,True,TEST00061,804.74,245102.31,189,244297.57
2018-01-02 15:34:38,-2.74,4000,True,i,40.46,MrGoodbar,MrsFields,9.05,True,MrGoodbar,6.31,True,TEST00061,40.46,245649.295,190,245608.835
2018-01-02 15:34:38,-0.14,4000,True,u,2470.64,ChipsAhoy_small,ChipsAhoy_small,4.2,True,Lollipopred,4.06,True,TEST00061,2470.64,248672.175,191,246201.535
2018-01-02 15:34:38,-0.08,4000,False,NaN,4000.75,NaN,FamousAmos_small,1.31,True,Goldfish,1.23,True,TEST00061,4000.75,253181.305,192,249180.555
2018-01-02 15:34:38,5.68,4000,True,u,3290.44,Milano,Milano,0.56,True,SourSkittles,6.24,True,TEST00061,3290.44,256977.635,193,253687.195
2018-01-02 15:34:38,-0.1,4000,True,u,282.23,Crunch,Crunch,7.95,True,Jollyranchergreen,7.85,True,TEST00061,282.23,257769.28,194,257487.05
2018-01-02 15:34:38,0.31,4000,True,u,43.54,Oreos,Oreos,1.0,True,FamousAmos_small,1.31,True,TEST00061,43.54,258320.255,195,258276.715
2018-01-02 15:34:38,0.06,4000,True,u,20.015,Nutterbutter,Nutterbutter,7.64,True,PopTartsStrawberry,7.7,True,TEST00061,20.015,258870.045,196,258850.03
2018-01-02 15:34:38,0.29,4000,True,i,1446.565,Keeblerfudgestripes,AnimalCrackers,7.06,True,Keeblerfudgestripes,7.35,True,TEST00061,1446.565,260825.96,197,259379.395
2018-01-02 15:34:38,-3.41,4000,True,u,122.12,Laysclassic,Laysclassic,4.74,True,BabyRuth,1.33,True,TEST00061,122.12,261454.125,198,261332.005
2018-01-02 15:34:38,0.83,4000,True,i,150.56,CheesyDoritos,Goldfish,1.23,True,CheesyDoritos,2.06,True,TEST00061,150.56,262110.075,199,261959.515
2018-01-02 15:34:38,-0.5,4000,False,NaN,4001.15,NaN,Doritosranch,5.7,True,starburst,5.2,True,TEST00061,4001.15,266614.945,200,262613.795
2018-01-02 15:34:38,-0.08,4000,False,NaN,4001.68,NaN,FigNewton_small,2.54,True,Almondjoy,2.46,True,TEST00061,4001.68,271122.495,201,267120.815
2018-01-02 15:34:38,-0.62,4000,False,NaN,4000.385,NaN,Hersheymilk_several,3.08,True,Almondjoy,2.46,True,TEST00061,4000.385,275628.69,202,271628.305
2018-01-02 15:34:38,-2.75,4000,False,NaN,4002.98,NaN,Toberlorone,4.06,True,FamousAmos_small,1.31,True,TEST00061,4002.98,280137.45,203,276134.47
2018-01-02 15:34:38,-2.36,4000,False,NaN,4001.21,NaN,100grand_small,2.73,True,Cheese_PeanutButterCrackers,0.37,True,TEST00061,4001.21,284644.395,204,280643.185
2018-01-02 15:34:38,2.76,4000,False,NaN,4005.38,NaN,Almondjoy,2.46,True,Hersheykisses,5.22,True,TEST00061,4005.38,289155.485,205,285150.105
2018-01-02 15:34:38,-1.98,4000,False,NaN,4005.39,NaN,FigNewton_small,2.54,True,Milano,0.56,True,TEST00061,4005.39,293666.815,206,289661.425
2018-01-02 15:34:38,1.06,4000,False,NaN,4005.395,NaN,Funyuns_small,3.0,True,Toberlorone,4.06,True,TEST00061,4005.395,298178.01,207,294172.615
2018-01-02 15:34:38,2.6,4000,False,NaN,4002.27,NaN,MilkyWay,0.48,True,Hersheymilk_several,3.08,True,TEST00061,4002.27,302686.015,208,298683.745
2018-01-02 15:34:38,-0.55,4000,False,NaN,4005.29,NaN,PringlesRed,9.64,True,Butterfinger,9.09,True,TEST00061,4005.29,307197.21,209,303191.92
