date,maxTrialTime,rating,receivedResponse,rt,stimulus1,stimulus1Loaded,subjectID,trialDuration,trialEndTime,trialN,trialStartTime
2017-12-22 10:09:27,NaN,6.16,True,1101.13,Keeblerfudgestripes,True,TEST00049,1101.13,1196.12,0,94.99
2017-12-22 10:09:27,NaN,7.45,True,392.41,Nutterbutter,True,TEST00049,392.41,1592.095,1,1199.685
2017-12-22 10:09:27,NaN,4.93,True,336.855,SourSkittles,True,TEST00049,336.855,1931.425,2,1594.57
2017-12-22 10:09:27,NaN,3.08,True,329.185,Cheezits,True,TEST00049,329.185,2262.895,3,1933.71
2017-12-22 10:09:27,NaN,5.45,True,361.14,KitKat_small,True,TEST00049,361.14,2626.605,4,2265.465
2017-12-22 10:09:27,NaN,8.07,True,320.485,Ghiradelli_milk,True,TEST00049,320.485,2949.43,5,2628.945
2017-12-22 10:09:27,NaN,9.2,True,296.48,WheatThins,True,TEST00049,296.48,3248.53,6,2952.05
2017-12-22 10:09:27,NaN,6.29,True,328.815,BabyRuth,True,TEST00049,328.815,3579.615,7,3250.8
2017-12-22 10:09:27,NaN,4.04,True,361.16,CheesyDoritos,True,TEST00049,361.16,3943.295,8,3582.135
2017-12-22 10:09:27,NaN,2.85,True,272.23,PringlesRed,True,TEST00049,272.23,4218.055,9,3945.825
2017-12-22 10:09:27,NaN,4.72,True,328.615,3Musketeers,True,TEST00049,328.615,4549.235,10,4220.62
2017-12-22 10:09:27,NaN,6.74,True,313.01,Milkduds,True,TEST00049,313.01,4864.705,11,4551.695
2017-12-22 10:09:27,NaN,7.97,True,287.965,MilkyWay,True,TEST00049,287.965,5155.035,12,4867.07
2017-12-22 10:09:27,NaN,8.64,True,296.79,Funyuns_small,True,TEST00049,296.79,5454.14,13,5157.35
2017-12-22 10:09:27,NaN,5.87,True,345.185,TeddyGrahamschocolate,True,TEST00049,345.185,5801.665,14,5456.48
2017-12-22 10:09:27,NaN,3.52,True,368.95,PayDay,True,TEST00049,368.95,6173.13,15,5804.18
2017-12-22 10:09:27,NaN,2.04,True,264.325,Crunch,True,TEST00049,264.325,6440.22,16,6175.895
2017-12-22 10:09:27,NaN,1.04,True,344.555,Snickers,True,TEST00049,344.555,6787.17,17,6442.615
2017-12-22 10:09:27,NaN,2.93,True,336.825,Lollipopred,True,TEST00049,336.825,7126.605,18,6789.78
2017-12-22 10:09:27,NaN,5.6,True,361.55,RiceKrispyTreat_small,True,TEST00049,361.55,7490.55,19,7129.0
2017-12-22 10:09:27,NaN,8.14,True,303.785,FigNewton_small,True,TEST00049,303.785,7797.185,20,7493.4
2017-12-22 10:09:27,NaN,8.84,True,345.025,PopTartsStrawberry,True,TEST00049,345.025,8144.695,21,7799.67
2017-12-22 10:09:27,NaN,6.49,True,360.94,Laysclassic,True,TEST00049,360.94,8508.14,22,8147.2
2017-12-22 10:09:27,NaN,5.29,True,377.32,Chocolate_mm,True,TEST00049,377.32,8887.835,23,8510.515
2017-12-22 10:09:27,NaN,3.14,True,295.965,FamousAmos_small,True,TEST00049,295.965,9186.74,24,8890.775
2017-12-22 10:09:27,NaN,1.79,True,288.615,Ghiradelli_milk_Almonds,True,TEST00049,288.615,9477.695,25,9189.08
2017-12-22 10:09:27,NaN,3.71,True,345.12,Butterfinger,True,TEST00049,345.12,9825.245,26,9480.125
2017-12-22 10:09:27,NaN,7.31,True,328.835,Dots_one,True,TEST00049,328.835,10156.405,27,9827.57
2017-12-22 10:09:27,NaN,9.14,True,336.99,MrsFields,True,TEST00049,336.99,10495.93,28,10158.94
2017-12-22 10:09:27,NaN,9.61,True,619.875,Hersheymilk_several,True,TEST00049,619.875,11118.16,29,10498.285
2017-12-22 10:09:27,NaN,7.55,True,392.995,MrGoodbar,True,TEST00049,392.995,11513.575,30,11120.58
2017-12-22 10:09:27,NaN,4.77,True,297.315,Granolabar,True,TEST00049,297.315,11812.815,31,11515.5
2017-12-22 10:09:27,NaN,2.33,True,279.665,FlamingCheetos,True,TEST00049,279.665,12095.37,32,11815.705
2017-12-22 10:09:27,NaN,0.94,True,437.855,PeanutMMs,True,TEST00049,437.855,12535.65,33,12097.795
2017-12-22 10:09:27,NaN,0.0,True,385.385,Laffytaffyred_one,True,TEST00049,385.385,12923.415,34,12538.03
2017-12-22 10:09:27,NaN,0.04,True,369.82,Almondjoy,True,TEST00049,369.82,13295.62,35,12925.8
2017-12-22 10:09:27,NaN,0.9,True,304.015,Twix,True,TEST00049,304.015,13602.12,36,13298.105
2017-12-22 10:09:27,NaN,2.52,True,369.045,TootsieRolls,True,TEST00049,369.045,13973.79,37,13604.745
2017-12-22 10:09:27,NaN,4.48,True,261.49,Sourpatch,True,TEST00049,261.49,14240.315,38,13978.825
2017-12-22 10:09:27,NaN,6.18,True,353.135,Whatchamacallit,True,TEST00049,353.135,14595.94,39,14242.805
2017-12-22 10:09:27,NaN,7.43,True,328.93,Goldfish,True,TEST00049,328.93,14927.225,40,14598.295
2017-12-22 10:09:27,NaN,6.78,True,361.145,Milano,True,TEST00049,361.145,15290.865,41,14929.72
2017-12-22 10:09:27,NaN,5.74,True,304.46,Doritosranch,True,TEST00049,304.46,15598.045,42,15293.585
2017-12-22 10:09:27,NaN,4.39,True,304.94,Cheese_PeanutButterCrackers,True,TEST00049,304.94,15904.58,43,15599.64
2017-12-22 10:09:27,NaN,3.18,True,337.39,Hersheykisses,True,TEST00049,337.39,16244.385,44,15906.995
2017-12-22 10:09:27,NaN,1.42,True,304.035,RitzBitz2,True,TEST00049,304.035,16551.095,45,16247.06
2017-12-22 10:09:27,NaN,1.41,True,280.58,Ruffles,True,TEST00049,280.58,16834.185,46,16553.605
2017-12-22 10:09:27,NaN,2.98,True,287.985,Cheetos,True,TEST00049,287.985,17124.715,47,16836.73
2017-12-22 10:09:27,NaN,4.45,True,313.235,Reeses,True,TEST00049,313.235,17440.345,48,17127.11
2017-12-22 10:09:27,NaN,6.51,True,280.13,ChipsAhoy_small,True,TEST00049,280.13,17722.655,49,17442.525
2017-12-22 10:09:27,NaN,7.87,True,296.83,Jollyranchergreen,True,TEST00049,296.83,18021.99,50,17725.16
2017-12-22 10:09:27,NaN,8.51,True,256.21,Oreos,True,TEST00049,256.21,18280.61,51,18024.4
2017-12-22 10:09:27,NaN,7.56,True,279.945,Slimjim,True,TEST00049,279.945,18563.16,52,18283.215
2017-12-22 10:09:27,NaN,6.35,True,231.57,Fritos,True,TEST00049,231.57,18797.115,53,18565.545
2017-12-22 10:09:27,NaN,5.79,True,223.825,starburst,True,TEST00049,223.825,19023.3,54,18799.475
2017-12-22 10:09:27,NaN,5.18,True,304.57,100grand_small,True,TEST00049,304.57,19330.305,55,19025.735
2017-12-22 10:09:27,NaN,3.68,True,263.885,Riprolls,True,TEST00049,263.885,19597.105,56,19333.22
2017-12-22 10:09:27,NaN,3.37,True,256.32,Skittles,True,TEST00049,256.32,19855.885,57,19599.565
2017-12-22 10:09:27,NaN,3.02,True,271.695,Toberlorone,True,TEST00049,271.695,20130.055,58,19858.36
2017-12-22 10:09:27,NaN,4.14,True,474.33,AnimalCrackers,True,TEST00049,474.33,20607.04,59,20132.71
