maxTrialTime,rating,receivedResponse,rt,stimulus1,stimulus1Loaded,subjectID,trialDuration,trialEndTime,trialN,trialStartTime
NaN,1.57,True,949.195,Funyuns_small,True,TEST00020,949.195,1330.175,0,380.98
NaN,1.86,True,448.295,MrsFields,True,TEST00020,448.295,1782.57,1,1334.275
NaN,2.4,True,393.41,Granolabar,True,TEST00020,393.41,2178.3,2,1784.89
NaN,1.64,True,426.67,RitzBitz2,True,TEST00020,426.67,2606.31,3,2179.64
NaN,1.01,True,386.32,FigNewton_small,True,TEST00020,386.32,2994.735,4,2608.415
NaN,0.65,True,482.04,Cheezits,True,TEST00020,482.04,3478.73,5,2996.69
NaN,1.32,True,361.285,Keeblerfudgestripes,True,TEST00020,361.285,3842.14,6,3480.855
NaN,1.8,True,474.315,PayDay,True,TEST00020,474.315,4318.59,7,3844.275
NaN,2.25,True,377.565,FamousAmos_small,True,TEST00020,377.565,4698.255,8,4320.69
NaN,2.63,True,418.2,MrGoodbar,True,TEST00020,418.2,5118.46,9,4700.26
NaN,2.15,True,417.53,Nutterbutter,True,TEST00020,417.53,5538.35,10,5120.82
NaN,1.48,True,409.615,starburst,True,TEST00020,409.615,5950.085,11,5540.47
NaN,0.95,True,442.83,Riprolls,True,TEST00020,442.83,6394.41,12,5951.58
NaN,0.63,True,369.645,Goldfish,True,TEST00020,369.645,6766.04,13,6396.395
NaN,1.06,True,441.995,TeddyGrahamschocolate,True,TEST00020,441.995,7210.25,14,6768.255
NaN,1.58,True,433.915,Twix,True,TEST00020,433.915,7646.28,15,7212.365
NaN,2.06,True,401.785,Ghiradelli_milk,True,TEST00020,401.785,8050.18,16,7648.395
NaN,1.34,True,434.16,Almondjoy,True,TEST00020,434.16,8486.555,17,8052.395
NaN,0.84,True,401.525,Whatchamacallit,True,TEST00020,401.525,8890.305,18,8488.78
NaN,0.57,True,393.65,Ruffles,True,TEST00020,393.65,9286.1,19,8892.45
NaN,1.06,True,378.01,MilkyWay,True,TEST00020,378.01,9665.61,20,9287.6
NaN,1.58,True,457.89,Laffytaffyred_one,True,TEST00020,457.89,10125.895,21,9668.005
NaN,1.91,True,466.555,KitKat_small,True,TEST00020,466.555,10594.5,22,10127.945
NaN,1.26,True,425.75,PeanutMMs,True,TEST00020,425.75,11022.53,23,10596.78
NaN,0.89,True,417.7,3Musketeers,True,TEST00020,417.7,11442.565,24,11024.865
NaN,0.6,True,409.79,Hersheykisses,True,TEST00020,409.79,11854.515,25,11444.725
NaN,1.15,True,417.82,Toberlorone,True,TEST00020,417.82,12274.45,26,11856.63
NaN,1.56,True,482.525,RiceKrispyTreat_small,True,TEST00020,482.525,12759.17,27,12276.645
NaN,1.97,True,426.05,Cheetos,True,TEST00020,426.05,13187.23,28,12761.18
NaN,2.34,True,417.955,Hersheymilk_several,True,TEST00020,417.955,13607.175,29,13189.22
NaN,1.79,True,426.455,Ghiradelli_milk_Almonds,True,TEST00020,426.455,14035.32,30,13608.865
NaN,1.1,True,393.645,Laysclassic,True,TEST00020,393.645,14431.075,31,14037.43
NaN,0.52,True,370.01,Sourpatch,True,TEST00020,370.01,14802.725,32,14432.715
NaN,1.34,True,401.73,100grand_small,True,TEST00020,401.73,15206.51,33,14804.78
NaN,0.13,True,801.78,Fritos,True,TEST00020,801.78,16010.63,34,15208.85
NaN,0.0,True,748.655,TootsieRolls,True,TEST00020,748.655,16761.5,35,16012.845
NaN,0.12,True,732.915,Dots_one,True,TEST00020,732.915,17496.525,36,16763.61
NaN,0.52,True,345.07,Jollyranchergreen,True,TEST00020,345.07,17843.825,37,17498.755
NaN,0.92,True,345.505,Milano,True,TEST00020,345.505,18191.36,38,17845.855
NaN,1.36,True,465.985,CheesyDoritos,True,TEST00020,465.985,18659.58,39,18193.595
NaN,1.84,True,418.19,Milkduds,True,TEST00020,418.19,19079.645,40,18661.455
NaN,2.29,True,385.655,Chocolate_mm,True,TEST00020,385.655,19467.425,41,19081.77
NaN,2.64,True,490.48,Snickers,True,TEST00020,490.48,19960.11,42,19469.63
NaN,2.95,True,409.745,Slimjim,True,TEST00020,409.745,20372.03,43,19962.285
NaN,2.96,True,740.935,AnimalCrackers,True,TEST00020,740.935,21115.125,44,20374.19
NaN,2.41,True,498.655,Lollipopred,True,TEST00020,498.655,21615.905,45,21117.25
NaN,1.65,True,441.98,Butterfinger,True,TEST00020,441.98,22060.15,46,21618.17
NaN,1.24,True,345.01,PringlesRed,True,TEST00020,345.01,22407.305,47,22062.295
NaN,0.74,True,511.445,Crunch,True,TEST00020,511.445,22920.22,48,22408.775
NaN,0.38,True,393.655,SourSkittles,True,TEST00020,393.655,23315.935,49,22922.28
NaN,0.16,True,402.335,BabyRuth,True,TEST00020,402.335,23719.875,50,23317.54
NaN,0.47,True,426.46,Oreos,True,TEST00020,426.46,24148.045,51,23721.585
NaN,0.93,True,393.585,FlamingCheetos,True,TEST00020,393.585,24543.81,52,24150.225
NaN,1.47,True,394.205,WheatThins,True,TEST00020,394.205,24940.09,53,24545.885
NaN,1.86,True,401.21,Skittles,True,TEST00020,401.21,25343.46,54,24942.25
NaN,1.86,True,434.42,Doritosranch,True,TEST00020,434.42,25779.95,55,25345.53
NaN,1.5,True,385.055,Reeses,True,TEST00020,385.055,26167.095,56,25782.04
NaN,1.1,True,417.77,PopTartsStrawberry,True,TEST00020,417.77,26587.17,57,26169.4
NaN,0.73,True,377.515,ChipsAhoy_small,True,TEST00020,377.515,26966.87,58,26589.355
NaN,1.46,True,434.0,Cheese_PeanutButterCrackers,True,TEST00020,434.0,27403.07,59,26969.07
