date,maxTrialTime,rating,receivedResponse,rt,stimulus1,stimulus1Loaded,subjectID,trialDuration,trialEndTime,trialN,trialStartTime
2017-12-04 02:03:19,NaN,2.52,True,6338.19,Crunch,True,TEST00036,6338.19,7013.285,0,675.095
2017-12-04 02:03:19,NaN,1.63,True,458.36,FigNewton_small,True,TEST00036,458.36,7473.8,1,7015.44
2017-12-04 02:03:19,NaN,0.85,True,296.715,TeddyGrahamschocolate,True,TEST00036,296.715,7773.075,2,7476.36
2017-12-04 02:03:19,NaN,0.94,True,337.01,Reeses,True,TEST00036,337.01,8112.455,3,7775.445
2017-12-04 02:03:19,NaN,1.42,True,255.585,Goldfish,True,TEST00036,255.585,8370.58,4,8114.995
2017-12-04 02:03:19,NaN,1.94,True,256.04,Cheetos,True,TEST00036,256.04,8629.035,5,8372.995
2017-12-04 02:03:19,NaN,2.29,True,304.555,Fritos,True,TEST00036,304.555,8936.065,6,8631.51
2017-12-04 02:03:19,NaN,1.55,True,272.43,Lollipopred,False,TEST00036,272.43,9210.81,7,8938.38
2017-12-04 02:03:20,NaN,1.16,True,231.345,Oreos,True,TEST00036,231.345,9444.935,8,9213.59
2017-12-04 02:03:20,NaN,0.65,True,248.24,Butterfinger,True,TEST00036,248.24,9695.665,9,9447.425
2017-12-04 02:03:20,NaN,1.09,True,578.89,MrGoodbar,True,TEST00036,578.89,10276.985,10,9698.095
2017-12-04 02:03:20,NaN,1.73,True,272.93,Chocolate_mm,True,TEST00036,272.93,10552.125,11,10279.195
2017-12-04 02:03:20,NaN,2.4,True,287.85,KitKat_small,True,TEST00036,287.85,10842.46,12,10554.61
2017-12-04 02:03:20,NaN,2.58,True,336.98,Hersheymilk_several,True,TEST00036,336.98,11181.79,13,10844.81
2017-12-04 02:03:20,NaN,2.18,True,288.73,Granolabar,True,TEST00036,288.73,11472.95,14,11184.22
2017-12-04 02:03:20,NaN,1.68,True,303.82,Funyuns_small,True,TEST00036,303.82,11779.555,15,11475.735
2017-12-04 02:03:20,NaN,1.21,True,296.595,Ruffles,True,TEST00036,296.595,12078.62,16,11782.025
2017-12-04 02:03:20,NaN,0.58,True,272.15,RitzBitz2,True,TEST00036,272.15,12353.235,17,12081.085
2017-12-04 02:03:20,NaN,0.3,True,313.01,Hersheykisses,True,TEST00036,313.01,12668.695,18,12355.685
2017-12-04 02:03:20,NaN,0.6,True,352.67,Almondjoy,True,TEST00036,352.67,13023.72,19,12671.05
2017-12-04 02:03:20,NaN,1.2,True,312.465,3Musketeers,True,TEST00036,312.465,13338.69,20,13026.225
2017-12-04 02:03:20,NaN,2.01,True,296.525,100grand_small,True,TEST00036,296.525,13637.655,21,13341.13
2017-12-04 02:03:20,NaN,2.51,True,280.33,FlamingCheetos,True,TEST00036,280.33,13920.345,22,13640.015
2017-12-04 02:03:20,NaN,2.65,True,256.055,PopTartsStrawberry,True,TEST00036,256.055,14178.83,23,13922.775
2017-12-04 02:03:20,NaN,2.72,True,248.105,Doritosranch,True,TEST00036,248.105,14429.39,24,14181.285
2017-12-04 02:03:20,NaN,2.9,True,271.975,RiceKrispyTreat_small,True,TEST00036,271.975,14704.02,25,14432.045
2017-12-04 02:03:20,NaN,2.65,True,353.37,starburst,True,TEST00036,353.37,15059.74,26,14706.37
2017-12-04 02:03:20,NaN,1.62,True,280.67,Ghiradelli_milk_Almonds,True,TEST00036,280.67,15342.41,27,15061.74
2017-12-04 02:03:20,NaN,0.98,True,305.11,Riprolls,True,TEST00036,305.11,15649.175,28,15344.065
2017-12-04 02:03:20,NaN,0.47,True,248.0,MilkyWay,True,TEST00036,248.0,15899.565,29,15651.565
2017-12-04 02:03:20,NaN,0.25,True,264.225,FamousAmos_small,True,TEST00036,264.225,16166.225,30,15902.0
2017-12-04 02:03:20,NaN,0.2,True,264.11,PringlesRed,True,TEST00036,264.11,16432.795,31,16168.685
2017-12-04 02:03:20,NaN,0.98,True,554.83,Toberlorone,True,TEST00036,554.83,16990.21,32,16435.38
2017-12-04 02:03:20,NaN,1.81,True,304.4,PeanutMMs,True,TEST00036,304.4,17297.18,33,16992.78
2017-12-04 02:03:20,NaN,2.36,True,264.025,Jollyranchergreen,True,TEST00036,264.025,17563.72,34,17299.695
2017-12-04 02:03:20,NaN,2.61,True,272.11,Ghiradelli_milk,True,TEST00036,272.11,17838.305,35,17566.195
2017-12-04 02:03:20,NaN,2.81,True,280.505,TootsieRolls,True,TEST00036,280.505,18121.13,36,17840.625
2017-12-04 02:03:20,NaN,0.49,True,1152.705,Laysclassic,True,TEST00036,1152.705,19276.355,37,18123.65
2017-12-04 02:03:20,NaN,0.11,True,353.555,MrsFields,True,TEST00036,353.555,19632.24,38,19278.685
2017-12-04 02:03:20,NaN,0.07,True,328.31,Whatchamacallit,True,TEST00036,328.31,19963.19,39,19634.88
2017-12-04 02:03:20,NaN,0.34,True,555.015,Snickers,True,TEST00036,555.015,20520.51,40,19965.495
2017-12-04 02:03:20,NaN,0.47,True,272.21,PayDay,True,TEST00036,272.21,20795.17,41,20522.96
2017-12-04 02:03:20,NaN,1.2,True,336.95,Laffytaffyred_one,True,TEST00036,336.95,21134.52,42,20797.57
2017-12-04 02:03:20,NaN,1.7,True,320.705,CheesyDoritos,True,TEST00036,320.705,21457.755,43,21137.05
2017-12-04 02:03:20,NaN,2.14,True,280.15,ChipsAhoy_small,True,TEST00036,280.15,21740.36,44,21460.21
2017-12-04 02:03:20,NaN,2.42,True,304.43,Twix,True,TEST00036,304.43,22047.265,45,21742.835
2017-12-04 02:03:20,NaN,2.64,True,247.97,Milkduds,False,TEST00036,247.97,22297.665,46,22049.695
2017-12-04 02:03:20,NaN,2.95,True,874.16,SourSkittles,True,TEST00036,874.16,23174.175,47,22300.015
2017-12-04 02:03:20,NaN,2.95,True,433.815,Skittles,True,TEST00036,433.815,23610.415,48,23176.6
2017-12-04 02:03:20,NaN,2.96,True,401.535,Dots_one,True,TEST00036,401.535,24014.33,49,23612.795
2017-12-04 02:03:20,NaN,2.52,True,635.77,Slimjim,True,TEST00036,635.77,24652.58,50,24016.81
2017-12-04 02:03:20,NaN,1.41,True,336.785,Sourpatch,True,TEST00036,336.785,24991.935,51,24655.15
2017-12-04 02:03:20,NaN,0.87,True,206.71,BabyRuth,True,TEST00036,206.71,25201.955,52,24995.245
2017-12-04 02:03:20,NaN,0.23,True,465.93,Cheezits,True,TEST00036,465.93,25670.425,53,25204.495
2017-12-04 02:03:20,NaN,0.0,True,345.01,Cheese_PeanutButterCrackers,True,TEST00036,345.01,26017.95,54,25672.94
2017-12-04 02:03:20,NaN,0.0,True,304.48,Milano,True,TEST00036,304.48,26324.79,55,26020.31
2017-12-04 02:03:20,NaN,0.01,True,272.255,Nutterbutter,True,TEST00036,272.255,26599.385,56,26327.13
2017-12-04 02:03:20,NaN,0.25,True,312.715,AnimalCrackers,True,TEST00036,312.715,26914.53,57,26601.815
2017-12-04 02:03:20,NaN,0.55,True,280.165,Keeblerfudgestripes,True,TEST00036,280.165,27197.04,58,26916.875
2017-12-04 02:03:20,NaN,1.32,True,257.21,WheatThins,True,TEST00036,257.21,27455.99,59,27198.78
