date,delta,maxTrialTime,receivedResponse,rsp,rt,selected,stimulus1,stimulus1Bid,stimulus1Loaded,stimulus2,stimulus2Bid,stimulus2Loaded,subjectID,trialDuration,trialEndTime,trialN,trialStartTime
2018-01-19 01:17:49,0.77,4000,True,u,334.935,Chocolate_mm,Chocolate_mm,1.87,True,FlamingCheetos,2.64,True,MDMMT_0010,334.935,674.73,0,339.795
2018-01-19 01:17:49,0.61,4000,True,i,116.945,Dots_one,Milkduds,5.79,True,Dots_one,6.4,True,MDMMT_0010,116.945,1303.57,1,1186.625
2018-01-19 01:17:49,0.35,4000,True,i,63.965,WheatThins,Ghiradelli_milk,0.04,True,WheatThins,0.39,True,MDMMT_0010,63.965,1876.65,2,1812.685
2018-01-19 01:17:49,0.28,4000,True,u,300.395,100grand_small,100grand_small,0.68,True,Laffytaffyred_one,0.96,True,MDMMT_0010,300.395,2681.635,3,2381.24
2018-01-19 01:17:49,-2.36,4000,True,u,196.485,PayDay,PayDay,8.76,True,Dots_one,6.4,True,MDMMT_0010,196.485,3383.615,4,3187.13
2018-01-19 01:17:49,0.27,4000,True,u,11.005,FigNewton_small,FigNewton_small,4.4,False,Sourpatch,4.67,False,MDMMT_0010,11.005,3903.405,5,3892.4
2018-01-19 01:17:49,-1.37,4000,True,u,53.61,Butterfinger,Butterfinger,1.37,True,RitzBitz2,0.0,True,MDMMT_0010,53.61,4464.39,6,4410.78
2018-01-19 01:17:49,1.4,4000,True,u,21.975,PringlesRed,PringlesRed,4.14,False,ChipsAhoy_small,5.54,True,MDMMT_0010,21.975,4994.305,7,4972.33
2018-01-19 01:17:49,0.15,4000,True,u,434.84,AnimalCrackers,AnimalCrackers,9.85,True,CheesyDoritos,10.0,True,MDMMT_0010,434.84,5939.895,8,5505.055
2018-01-19 01:17:49,-0.44,4000,True,u,122.515,SourSkittles,SourSkittles,6.92,True,Hersheykisses,6.48,True,MDMMT_0010,122.515,6568.415,9,6445.9
2018-01-19 01:17:49,-5.63,4000,True,u,132.38,FamousAmos_small,FamousAmos_small,8.28,True,starburst,2.65,True,MDMMT_0010,132.38,7209.445,10,7077.065
2018-01-19 01:17:49,1.94,4000,True,i,148.08,Lollipopred,Crunch,5.71,True,Lollipopred,7.65,True,MDMMT_0010,148.08,7861.44,11,7713.36
2018-01-19 01:17:49,0.05,4000,True,u,42.46,Twix,Twix,2.65,True,PeanutMMs,2.7,True,MDMMT_0010,42.46,8408.22,12,8365.76
2018-01-19 01:17:49,0.39,4000,True,i,274.93,Reeses,Ruffles,2.0,True,Reeses,2.39,True,MDMMT_0010,274.93,9187.345,13,8912.415
2018-01-19 01:17:49,0.11,4000,True,u,155.71,Funyuns_small,Funyuns_small,2.98,True,Whatchamacallit,3.09,True,MDMMT_0010,155.71,9851.32,14,9695.61
2018-01-19 01:17:49,0.53,4000,True,u,206.79,Hersheymilk_several,Hersheymilk_several,4.89,True,Ghiradelli_milk_Almonds,5.42,True,MDMMT_0010,206.79,10564.095,15,10357.305
2018-01-19 01:17:49,1.13,4000,True,i,25.705,Ruffles,MrsFields,0.87,True,Ruffles,2.0,True,MDMMT_0010,25.705,11095.095,16,11069.39
2018-01-19 01:17:49,-0.54,4000,True,i,43.285,PringlesRed,Granolabar,4.68,True,PringlesRed,4.14,True,MDMMT_0010,43.285,11641.08,17,11597.795
2018-01-19 01:17:49,-0.38,4000,True,i,20.34,Skittles,Sourpatch,4.67,True,Skittles,4.29,True,MDMMT_0010,20.34,12165.99,18,12145.65
2018-01-19 01:17:49,-0.57,4000,True,u,277.285,CheesyDoritos,CheesyDoritos,10.0,True,Doritosranch,9.43,True,MDMMT_0010,277.285,12947.13,19,12669.845
2018-01-19 01:17:49,4.06,4000,True,u,17.91,Milkduds,Milkduds,5.79,True,AnimalCrackers,9.85,True,MDMMT_0010,17.91,13474.0,20,13456.09
2018-01-19 01:17:49,-0.61,4000,True,u,117.25,PeanutMMs,PeanutMMs,2.7,True,Laysclassic,2.09,True,MDMMT_0010,117.25,14150.085,21,14032.835
2018-01-19 01:17:49,-0.29,4000,True,i,238.465,Ghiradelli_milk_Almonds,Crunch,5.71,True,Ghiradelli_milk_Almonds,5.42,True,MDMMT_0010,238.465,14895.125,22,14656.66
2018-01-19 01:17:49,-0.28,4000,True,i,1138.255,FigNewton_small,Granolabar,4.68,True,FigNewton_small,4.4,True,MDMMT_0010,1138.255,16542.0,23,15403.745
2018-01-19 01:17:49,-0.16,4000,True,i,294.89,Cheezits,MrGoodbar,1.76,True,Cheezits,1.6,True,MDMMT_0010,294.89,17346.94,24,17052.05
2018-01-19 01:17:49,-2.53,4000,True,u,34.65,Riprolls,Riprolls,6.82,True,Skittles,4.29,True,MDMMT_0010,34.65,17888.865,25,17854.215
2018-01-19 01:17:49,-6.19,4000,True,u,17.435,Oreos,Oreos,9.92,False,MilkyWay,3.73,False,MDMMT_0010,17.435,18412.71,26,18395.275
2018-01-19 01:17:49,-0.95,4000,True,i,178.06,Toberlorone,Butterfinger,1.37,True,Toberlorone,0.42,True,MDMMT_0010,178.06,19096.7,27,18918.64
2018-01-19 01:17:49,-0.78,4000,True,i,39.3,3Musketeers,Twix,2.65,True,3Musketeers,1.87,True,MDMMT_0010,39.3,19643.815,28,19604.515
2018-01-19 01:17:49,-4.26,4000,True,i,106.95,Nutterbutter,ChipsAhoy_small,5.54,True,Nutterbutter,1.28,True,MDMMT_0010,106.95,20299.855,29,20192.905
2018-01-19 01:17:49,-2.27,4000,True,u,371.07,PringlesRed,PringlesRed,4.14,True,Chocolate_mm,1.87,True,MDMMT_0010,371.07,21175.805,30,20804.735
2018-01-19 01:17:49,4.25,4000,True,u,168.675,Almondjoy,Almondjoy,1.17,True,Ghiradelli_milk_Almonds,5.42,True,MDMMT_0010,168.675,21853.735,31,21685.06
2018-01-19 01:17:49,-1.13,4000,True,u,44.115,Laysclassic,Laysclassic,2.09,True,Laffytaffyred_one,0.96,True,MDMMT_0010,44.115,22406.715,32,22362.6
2018-01-19 01:17:49,-0.1,4000,True,i,127.445,Riprolls,SourSkittles,6.92,True,Riprolls,6.82,True,MDMMT_0010,127.445,23063.645,33,22936.2
2018-01-19 01:17:49,-0.86,4000,True,u,301.34,Fritos,Fritos,6.65,True,Milkduds,5.79,True,MDMMT_0010,301.34,23873.735,34,23572.395
2018-01-19 01:17:49,-0.69,4000,True,u,141.295,Dots_one,Dots_one,6.4,True,Crunch,5.71,True,MDMMT_0010,141.295,24519.65,35,24378.355
2018-01-19 01:17:49,6.4,4000,False,NaN,5004.895,NaN,Keeblerfudgestripes,3.45,True,AnimalCrackers,9.85,True,MDMMT_0010,5004.895,30033.52,36,25028.625
2018-01-19 01:17:49,-1.37,4000,False,NaN,5011.345,NaN,MrGoodbar,1.76,True,WheatThins,0.39,True,MDMMT_0010,5011.345,35806.425,37,30795.08
2018-01-19 01:17:49,0.15,4000,False,NaN,4375.38,NaN,TootsieRolls,4.14,True,Skittles,4.29,True,MDMMT_0010,4375.38,41236.805,38,36861.425
2018-01-19 01:17:49,-4.14,4000,False,NaN,4001.825,NaN,TootsieRolls,4.14,True,RitzBitz2,0.0,True,MDMMT_0010,4001.825,45749.97,39,41748.145
2018-01-19 01:17:49,0.0,4000,False,NaN,4000.395,NaN,Chocolate_mm,1.87,True,3Musketeers,1.87,True,MDMMT_0010,4000.395,50251.24,40,46250.845
2018-01-19 01:17:49,4.19,4000,False,NaN,4438.04,NaN,Cheezits,1.6,True,Milkduds,5.79,True,MDMMT_0010,4438.04,55190.385,41,50752.345
2018-01-19 01:17:49,0.25,4000,False,NaN,4982.045,NaN,Almondjoy,1.17,True,Jollyranchergreen,1.42,True,MDMMT_0010,4982.045,60893.14,42,55911.095
2018-01-19 01:17:49,0.17,4000,False,NaN,5094.59,NaN,RiceKrispyTreat_small,7.48,True,Lollipopred,7.65,True,MDMMT_0010,5094.59,66885.755,43,61791.165
2018-01-19 01:17:49,-0.84,4000,False,NaN,5236.425,NaN,BabyRuth,2.6,True,MrGoodbar,1.76,True,MDMMT_0010,5236.425,73029.725,44,67793.3
2018-01-19 01:17:49,1.38,4000,False,NaN,5466.745,NaN,Ghiradelli_milk,0.04,True,Jollyranchergreen,1.42,True,MDMMT_0010,5466.745,79260.045,45,73793.3
2018-01-19 01:17:49,1.12,4000,False,NaN,5045.25,NaN,Cheese_PeanutButterCrackers,5.7,True,Riprolls,6.82,True,MDMMT_0010,5045.25,85054.81,46,80009.56
2018-01-19 01:17:49,5.0,4000,False,NaN,5931.4,NaN,Twix,2.65,True,Lollipopred,7.65,True,MDMMT_0010,5931.4,91725.355,47,85793.955
2018-01-19 01:17:49,-1.87,4000,False,NaN,5934.295,NaN,3Musketeers,1.87,True,RitzBitz2,0.0,True,MDMMT_0010,5934.295,98807.945,48,92873.65
2018-01-19 01:17:49,1.96,4000,False,NaN,4999.785,NaN,100grand_small,0.68,True,FlamingCheetos,2.64,True,MDMMT_0010,4999.785,104905.73,49,99905.945
2018-01-19 01:17:49,2.51,4000,False,NaN,5180.795,NaN,TootsieRolls,4.14,True,Fritos,6.65,True,MDMMT_0010,5180.795,111005.07,50,105824.275
2018-01-19 01:17:49,-0.12,4000,False,NaN,5013.665,NaN,Lollipopred,7.65,True,Milano,7.53,True,MDMMT_0010,5013.665,116822.1,51,111808.435
2018-01-19 01:17:49,-0.2,4000,False,NaN,5286.555,NaN,Butterfinger,1.37,True,Almondjoy,1.17,True,MDMMT_0010,5286.555,123211.215,52,117924.66
2018-01-19 01:17:49,-0.64,4000,False,NaN,5965.67,NaN,MilkyWay,3.73,True,Whatchamacallit,3.09,True,MDMMT_0010,5965.67,129890.395,53,123924.725
2018-01-19 01:17:49,-4.33,4000,False,NaN,5216.045,NaN,Cheese_PeanutButterCrackers,5.7,True,Butterfinger,1.37,True,MDMMT_0010,5216.045,136123.72,54,130907.675
2018-01-19 01:17:49,-5.09,4000,False,NaN,5932.19,NaN,RiceKrispyTreat_small,7.48,True,Reeses,2.39,True,MDMMT_0010,5932.19,142806.665,55,136874.475
2018-01-19 01:17:49,4.9,4000,False,NaN,5050.97,NaN,FlamingCheetos,2.64,True,Slimjim,7.54,True,MDMMT_0010,5050.97,149056.43,56,144005.46
2018-01-19 01:17:49,1.22,4000,False,NaN,5149.125,NaN,Almondjoy,1.17,True,Reeses,2.39,True,MDMMT_0010,5149.125,154955.975,57,149806.85
2018-01-19 01:17:49,0.15,4000,False,NaN,5982.78,NaN,PringlesRed,4.14,True,Skittles,4.29,True,MDMMT_0010,5982.78,161805.985,58,155823.205
2018-01-19 01:17:49,0.57,4000,False,NaN,5168.245,NaN,FamousAmos_small,8.28,True,Snickers,8.85,True,MDMMT_0010,5168.245,168005.37,59,162837.125
2018-01-19 01:17:49,0.34,4000,False,NaN,5021.27,NaN,Hersheykisses,6.48,True,Riprolls,6.82,True,MDMMT_0010,5021.27,173840.71,60,168819.44
2018-01-19 01:17:49,0.49,4000,False,NaN,5166.365,NaN,Doritosranch,9.43,True,Oreos,9.92,True,MDMMT_0010,5166.365,180021.96,61,174855.595
2018-01-19 01:17:49,-1.45,4000,False,NaN,5367.21,NaN,Chocolate_mm,1.87,True,Toberlorone,0.42,True,MDMMT_0010,5367.21,186169.555,62,180802.345
2018-01-19 01:17:49,0.38,4000,False,NaN,5982.545,NaN,Ghiradelli_milk,0.04,True,Toberlorone,0.42,True,MDMMT_0010,5982.545,192888.085,63,186905.54
2018-01-19 01:17:49,-4.25,4000,False,NaN,5980.125,NaN,Sourpatch,4.67,True,Toberlorone,0.42,True,MDMMT_0010,5980.125,199771.125,64,193791.0
2018-01-19 01:17:49,0.89,4000,False,NaN,5010.85,NaN,WheatThins,0.39,True,Nutterbutter,1.28,True,MDMMT_0010,5010.85,205932.395,65,200921.545
2018-01-19 01:17:49,3.72,4000,False,NaN,5368.025,NaN,Crunch,5.71,True,Doritosranch,9.43,True,MDMMT_0010,5368.025,212169.35,66,206801.325
2018-01-19 01:17:49,0.12,4000,False,NaN,5058.02,NaN,Ghiradelli_milk_Almonds,5.42,True,ChipsAhoy_small,5.54,True,MDMMT_0010,5058.02,217853.755,67,212795.735
2018-01-19 01:17:49,-6.09,4000,False,NaN,4969.645,NaN,Doritosranch,9.43,True,Cheetos,3.34,True,MDMMT_0010,4969.645,223790.48,68,218820.835
2018-01-19 01:17:49,-0.8,4000,False,NaN,5982.61,NaN,PringlesRed,4.14,True,Cheetos,3.34,True,MDMMT_0010,5982.61,230803.24,69,224820.63
2018-01-19 01:17:49,-0.47,4000,False,NaN,5349.24,NaN,Keeblerfudgestripes,3.45,True,Funyuns_small,2.98,True,MDMMT_0010,5349.24,237202.965,70,231853.725
2018-01-19 01:17:49,-1.19,4000,False,NaN,5432.965,NaN,3Musketeers,1.87,True,100grand_small,0.68,True,MDMMT_0010,5432.965,243369.425,71,237936.46
2018-01-19 01:17:49,-1.84,4000,False,NaN,4931.04,NaN,Slimjim,7.54,True,Cheese_PeanutButterCrackers,5.7,True,MDMMT_0010,4931.04,249800.74,72,244869.7
2018-01-19 01:17:49,-5.89,4000,False,NaN,5015.745,NaN,PopTartsStrawberry,8.98,True,Whatchamacallit,3.09,True,MDMMT_0010,5015.745,255835.56,73,250819.815
2018-01-19 01:17:49,-0.05,4000,False,NaN,5965.81,NaN,Milano,7.53,True,RiceKrispyTreat_small,7.48,True,MDMMT_0010,5965.81,262818.58,74,256852.77
2018-01-19 01:17:49,-1.22,4000,False,NaN,5977.1,NaN,PayDay,8.76,True,Slimjim,7.54,True,MDMMT_0010,5977.1,269890.47,75,263913.37
2018-01-19 01:17:49,-0.26,4000,False,NaN,5199.705,NaN,100grand_small,0.68,True,Toberlorone,0.42,True,MDMMT_0010,5199.705,276001.785,76,270802.08
2018-01-19 01:17:49,-1.92,4000,False,NaN,5752.545,NaN,Cheetos,3.34,True,Jollyranchergreen,1.42,True,MDMMT_0010,5752.545,282551.125,77,276798.58
2018-01-19 01:17:49,0.94,4000,False,NaN,5937.335,NaN,PopTartsStrawberry,8.98,True,Oreos,9.92,True,MDMMT_0010,5937.335,289917.58,78,283980.245
2018-01-19 01:17:49,0.89,4000,False,NaN,5166.48,NaN,TeddyGrahamschocolate,0.28,True,Almondjoy,1.17,True,MDMMT_0010,5166.48,296000.975,79,290834.495
2018-01-19 01:17:49,-0.06,4000,False,NaN,5016.055,NaN,Slimjim,7.54,True,RiceKrispyTreat_small,7.48,True,MDMMT_0010,5016.055,301817.055,80,296801.0
2018-01-19 01:17:50,-1.11,4000,False,NaN,4983.38,NaN,Fritos,6.65,True,ChipsAhoy_small,5.54,True,MDMMT_0010,4983.38,307833.49,81,302850.11
2018-01-19 01:17:50,-1.24,4000,False,NaN,5180.53,NaN,CheesyDoritos,10.0,True,PayDay,8.76,True,MDMMT_0010,5180.53,314081.08,82,308900.55
2018-01-19 01:17:50,-0.21,4000,False,NaN,5982.025,NaN,BabyRuth,2.6,True,Reeses,2.39,True,MDMMT_0010,5982.025,320832.825,83,314850.8
2018-01-19 01:17:50,-1.5,4000,False,NaN,5266.03,NaN,KitKat_small,4.95,True,Keeblerfudgestripes,3.45,True,MDMMT_0010,5266.03,327062.75,84,321796.72
2018-01-19 01:17:50,4.29,4000,False,NaN,5867.725,NaN,Jollyranchergreen,1.42,True,Crunch,5.71,True,MDMMT_0010,5867.725,333665.78,85,327798.055
2018-01-19 01:17:50,-4.02,4000,False,NaN,4749.71,NaN,Hersheymilk_several,4.89,True,MrsFields,0.87,True,MDMMT_0010,4749.71,339816.15,86,335066.44
2018-01-19 01:17:50,0.45,4000,False,NaN,5869.3,NaN,Toberlorone,0.42,True,MrsFields,0.87,True,MDMMT_0010,5869.3,346665.285,87,340795.985
2018-01-19 01:17:50,1.37,4000,False,NaN,5950.1,NaN,RiceKrispyTreat_small,7.48,True,Snickers,8.85,True,MDMMT_0010,5950.1,353948.24,88,347998.14
2018-01-19 01:17:50,4.93,4000,False,NaN,5902.95,NaN,BabyRuth,2.6,True,Milano,7.53,True,MDMMT_0010,5902.95,360815.335,89,354912.385
2018-01-19 01:17:50,2.86,4000,False,NaN,5927.565,NaN,Granolabar,4.68,True,Slimjim,7.54,True,MDMMT_0010,5927.565,367849.73,90,361922.165
2018-01-19 01:17:50,-0.27,4000,False,NaN,5867.73,NaN,Chocolate_mm,1.87,True,Cheezits,1.6,True,MDMMT_0010,5867.73,374668.7,91,368800.97
2018-01-19 01:17:50,0.01,4000,False,NaN,5951.85,NaN,Sourpatch,4.67,True,Granolabar,4.68,True,MDMMT_0010,5951.85,381968.245,92,376016.395
2018-01-19 01:17:50,-0.42,4000,False,NaN,5371.4,NaN,AnimalCrackers,9.85,True,Doritosranch,9.43,True,MDMMT_0010,5371.4,388166.02,93,382794.62
2018-01-19 01:17:50,-2.76,4000,False,NaN,5867.985,NaN,Lollipopred,7.65,True,Hersheymilk_several,4.89,True,MDMMT_0010,5867.985,394666.85,94,388798.865
2018-01-19 01:17:50,1.85,4000,False,NaN,4765.145,NaN,Cheezits,1.6,True,Keeblerfudgestripes,3.45,True,MDMMT_0010,4765.145,400796.98,95,396031.835
2018-01-19 01:17:50,-0.11,4000,False,NaN,5381.935,NaN,Nutterbutter,1.28,True,Almondjoy,1.17,True,MDMMT_0010,5381.935,407179.93,96,401797.995
2018-01-19 01:17:50,3.28,4000,False,NaN,5319.485,NaN,Cheese_PeanutButterCrackers,5.7,True,PopTartsStrawberry,8.98,True,MDMMT_0010,5319.485,413229.055,97,407909.57
2018-01-19 01:17:50,-0.65,4000,False,NaN,5480.68,NaN,ChipsAhoy_small,5.54,True,Hersheymilk_several,4.89,True,MDMMT_0010,5480.68,419431.785,98,413951.105
2018-01-19 01:17:50,-0.01,4000,False,NaN,5785.73,NaN,starburst,2.65,True,FlamingCheetos,2.64,True,MDMMT_0010,5785.73,426796.61,99,421010.88
2018-01-19 01:17:50,0.11,4000,False,NaN,5403.78,NaN,MrGoodbar,1.76,True,3Musketeers,1.87,True,MDMMT_0010,5403.78,433249.32,100,427845.54
2018-01-19 01:17:50,3.52,4000,False,NaN,5965.76,NaN,Hersheykisses,6.48,True,CheesyDoritos,10.0,True,MDMMT_0010,5965.76,439797.225,101,433831.465
2018-01-19 01:17:50,0.36,4000,False,NaN,5171.75,NaN,Funyuns_small,2.98,True,Cheetos,3.34,True,MDMMT_0010,5171.75,446001.025,102,440829.275
2018-01-19 01:17:50,0.41,4000,False,NaN,5205.445,NaN,MrsFields,0.87,True,Nutterbutter,1.28,True,MDMMT_0010,5205.445,452001.38,103,446795.935
2018-01-19 01:17:50,1.96,4000,False,NaN,5068.385,NaN,Ghiradelli_milk,0.04,True,Ruffles,2.0,True,MDMMT_0010,5068.385,457861.035,104,452792.65
2018-01-19 01:17:50,-0.36,4000,False,NaN,5037.85,NaN,Goldfish,4.5,True,TootsieRolls,4.14,True,MDMMT_0010,5037.85,463830.93,105,458793.08
2018-01-19 01:17:50,3.52,4000,False,NaN,5867.815,NaN,Dots_one,6.4,True,Oreos,9.92,True,MDMMT_0010,5867.815,470664.545,106,464796.73
2018-01-19 01:17:50,-0.9,4000,False,NaN,4782.235,NaN,Milkduds,5.79,True,Hersheymilk_several,4.89,True,MDMMT_0010,4782.235,476790.235,107,472008.0
2018-01-19 01:17:50,5.86,4000,False,NaN,5117.31,NaN,PringlesRed,4.14,True,CheesyDoritos,10.0,True,MDMMT_0010,5117.31,482908.015,108,477790.705
2018-01-19 01:17:50,-1.2,4000,False,NaN,4971.375,NaN,Skittles,4.29,True,Whatchamacallit,3.09,True,MDMMT_0010,4971.375,488790.235,109,483818.86
2018-01-19 01:17:50,-1.78,4000,False,NaN,4898.075,NaN,Twix,2.65,True,MrsFields,0.87,True,MDMMT_0010,4898.075,494806.655,110,489908.58
2018-01-19 01:17:50,-0.92,4000,False,NaN,5982.655,NaN,Laffytaffyred_one,0.96,True,Ghiradelli_milk,0.04,True,MDMMT_0010,5982.655,501889.18,111,495906.525
2018-01-19 01:17:50,-1.7,4000,False,NaN,5671.165,NaN,Funyuns_small,2.98,True,Nutterbutter,1.28,True,MDMMT_0010,5671.165,508537.09,112,502865.925
2018-01-19 01:17:50,1.64,4000,False,NaN,4978.575,NaN,FamousAmos_small,8.28,True,Oreos,9.92,True,MDMMT_0010,4978.575,515025.345,113,510046.77
2018-01-19 01:17:50,1.21,4000,False,NaN,5979.54,NaN,Crunch,5.71,True,SourSkittles,6.92,True,MDMMT_0010,5979.54,521771.675,114,515792.135
2018-01-19 01:17:50,1.69,4000,False,NaN,5782.815,NaN,Funyuns_small,2.98,True,Sourpatch,4.67,True,MDMMT_0010,5782.815,528708.01,115,522925.195
2018-01-19 01:17:50,4.64,4000,False,NaN,5501.79,NaN,MrGoodbar,1.76,True,Dots_one,6.4,True,MDMMT_0010,5501.79,535574.61,116,530072.82
2018-01-19 01:17:50,-2.61,4000,False,NaN,5980.55,NaN,Doritosranch,9.43,True,Riprolls,6.82,True,MDMMT_0010,5980.55,543004.415,117,537023.865
2018-01-19 01:17:50,-2.18,4000,False,NaN,4948.415,NaN,BabyRuth,2.6,True,Toberlorone,0.42,True,MDMMT_0010,4948.415,548790.28,118,543841.865
2018-01-19 01:17:50,-0.09,4000,False,NaN,5980.535,NaN,Milkduds,5.79,True,Cheese_PeanutButterCrackers,5.7,True,MDMMT_0010,5980.535,556002.13,119,550021.595
2018-01-19 01:17:50,1.32,4000,False,NaN,5000.11,NaN,Nutterbutter,1.28,True,BabyRuth,2.6,True,MDMMT_0010,5000.11,561841.555,120,556841.445
2018-01-19 01:17:50,1.55,4000,False,NaN,5166.095,NaN,Cheetos,3.34,True,Hersheymilk_several,4.89,True,MDMMT_0010,5166.095,568089.99,121,562923.895
2018-01-19 01:17:50,-0.94,4000,False,NaN,5966.575,NaN,Sourpatch,4.67,True,MilkyWay,3.73,True,MDMMT_0010,5966.575,574806.23,122,568839.655
2018-01-19 01:17:50,-1.32,4000,False,NaN,5629.27,NaN,Cheezits,1.6,True,TeddyGrahamschocolate,0.28,True,MDMMT_0010,5629.27,581650.115,123,576020.845
2018-01-19 01:17:50,1.75,4000,False,NaN,4999.86,NaN,starburst,2.65,True,FigNewton_small,4.4,True,MDMMT_0010,4999.86,587975.625,124,582975.765
2018-01-19 01:17:50,-0.41,4000,False,NaN,5432.87,NaN,TootsieRolls,4.14,True,MilkyWay,3.73,True,MDMMT_0010,5432.87,594255.21,125,588822.34
2018-01-19 01:17:50,-2.47,4000,False,NaN,5982.065,NaN,CheesyDoritos,10.0,True,Milano,7.53,True,MDMMT_0010,5982.065,600988.35,126,595006.285
2018-01-19 01:17:50,0.41,4000,False,NaN,5385.215,NaN,Laffytaffyred_one,0.96,True,Butterfinger,1.37,True,MDMMT_0010,5385.215,607188.54,127,601803.325
2018-01-19 01:17:50,-1.81,4000,False,NaN,5249.375,NaN,Laysclassic,2.09,True,TeddyGrahamschocolate,0.28,True,MDMMT_0010,5249.375,613187.85,128,607938.475
2018-01-19 01:17:50,0.59,4000,False,NaN,5003.275,NaN,KitKat_small,4.95,True,ChipsAhoy_small,5.54,True,MDMMT_0010,5003.275,618941.965,129,613938.69
2018-01-19 01:17:50,1.97,4000,False,NaN,5372.24,NaN,MrGoodbar,1.76,True,MilkyWay,3.73,True,MDMMT_0010,5372.24,625207.325,130,619835.085
2018-01-19 01:17:50,0.11,4000,False,NaN,5016.86,NaN,Cheetos,3.34,True,Keeblerfudgestripes,3.45,True,MDMMT_0010,5016.86,630820.895,131,625804.035
2018-01-19 01:17:50,-3.33,4000,False,NaN,5429.605,NaN,FamousAmos_small,8.28,True,KitKat_small,4.95,True,MDMMT_0010,5429.605,637450.47,132,632020.865
2018-01-19 01:17:50,-0.87,4000,False,NaN,5055.505,NaN,MrsFields,0.87,True,RitzBitz2,0.0,True,MDMMT_0010,5055.505,644141.27,133,639085.765
2018-01-19 01:17:50,0.4,4000,False,NaN,5002.945,NaN,TeddyGrahamschocolate,0.28,True,100grand_small,0.68,True,MDMMT_0010,5002.945,649893.255,134,644890.31
2018-01-19 01:17:50,0.65,4000,False,NaN,5381.58,NaN,Ruffles,2.0,True,starburst,2.65,True,MDMMT_0010,5381.58,656233.21,135,650851.63
2018-01-19 01:17:50,-6.06,4000,False,NaN,5064.57,NaN,PayDay,8.76,True,PeanutMMs,2.7,True,MDMMT_0010,5064.57,662033.035,136,656968.465
2018-01-19 01:17:50,-0.06,4000,False,NaN,5158.545,NaN,PeanutMMs,2.7,True,FlamingCheetos,2.64,True,MDMMT_0010,5158.545,667949.08,137,662790.535
2018-01-19 01:17:50,0.11,4000,False,NaN,5977.745,NaN,Slimjim,7.54,True,Lollipopred,7.65,True,MDMMT_0010,5977.745,674827.37,138,668849.625
2018-01-19 01:17:50,-4.25,4000,False,NaN,5003.07,NaN,Skittles,4.29,True,Ghiradelli_milk,0.04,True,MDMMT_0010,5003.07,680955.435,139,675952.365
2018-01-19 01:17:50,0.22,4000,False,NaN,4965.865,NaN,PayDay,8.76,True,PopTartsStrawberry,8.98,True,MDMMT_0010,4965.865,686790.395,140,681824.53
2018-01-19 01:17:50,-0.05,4000,False,NaN,5471.4,NaN,PeanutMMs,2.7,True,starburst,2.65,True,MDMMT_0010,5471.4,693273.42,141,687802.02
2018-01-19 01:17:50,1.89,4000,False,NaN,5081.6,NaN,Slimjim,7.54,True,Doritosranch,9.43,True,MDMMT_0010,5081.6,699098.105,142,694016.505
2018-01-19 01:17:50,0.36,4000,False,NaN,5418.795,NaN,Whatchamacallit,3.09,True,Keeblerfudgestripes,3.45,True,MDMMT_0010,5418.795,705257.72,143,699838.925
2018-01-19 01:17:50,0.39,4000,False,NaN,5463.975,NaN,RitzBitz2,0.0,True,WheatThins,0.39,True,MDMMT_0010,5463.975,711265.12,144,705801.145
2018-01-19 01:17:50,-1.45,4000,False,NaN,4999.68,NaN,PopTartsStrawberry,8.98,True,Milano,7.53,True,MDMMT_0010,4999.68,717015.79,145,712016.11
2018-01-19 01:17:50,-5.87,4000,False,NaN,4991.075,NaN,Snickers,8.85,True,Funyuns_small,2.98,True,MDMMT_0010,4991.075,722796.91,146,717805.835
2018-01-19 01:17:50,-1.59,4000,False,NaN,5875.775,NaN,Granolabar,4.68,True,Whatchamacallit,3.09,True,MDMMT_0010,5875.775,729666.615,147,723790.84
2018-01-19 01:17:50,0.26,4000,False,NaN,5132.43,NaN,Reeses,2.39,True,Twix,2.65,True,MDMMT_0010,5132.43,736066.335,148,730933.905
2018-01-19 01:17:50,1.5,4000,False,NaN,5980.78,NaN,FlamingCheetos,2.64,True,TootsieRolls,4.14,True,MDMMT_0010,5980.78,742797.48,149,736816.7
2018-01-19 01:17:50,-4.0,4000,False,NaN,5048.655,NaN,Granolabar,4.68,True,100grand_small,0.68,True,MDMMT_0010,5048.655,748915.785,150,743867.13
2018-01-19 01:17:50,0.75,4000,False,NaN,5348.9,NaN,KitKat_small,4.95,True,Cheese_PeanutButterCrackers,5.7,True,MDMMT_0010,5348.9,755165.875,151,749816.975
2018-01-19 01:17:50,-0.13,4000,False,NaN,5681.16,NaN,PopTartsStrawberry,8.98,True,Snickers,8.85,True,MDMMT_0010,5681.16,761513.72,152,755832.56
2018-01-19 01:17:50,3.34,4000,False,NaN,4737.78,NaN,Ghiradelli_milk_Almonds,5.42,True,PayDay,8.76,True,MDMMT_0010,4737.78,767790.385,153,763052.605
2018-01-19 01:17:50,1.06,4000,False,NaN,4755.945,NaN,Ghiradelli_milk_Almonds,5.42,True,Hersheykisses,6.48,True,MDMMT_0010,4755.945,773790.445,154,769034.5
2018-01-19 01:17:50,-2.37,4000,False,NaN,5493.3,NaN,Snickers,8.85,True,Hersheykisses,6.48,True,MDMMT_0010,5493.3,780530.17,155,775036.87
2018-01-19 01:17:50,-0.41,4000,False,NaN,5217.4,NaN,PringlesRed,4.14,True,MilkyWay,3.73,True,MDMMT_0010,5217.4,787013.32,156,781795.92
2018-01-19 01:17:51,-2.44,4000,False,NaN,5510.405,NaN,Oreos,9.92,True,RiceKrispyTreat_small,7.48,True,MDMMT_0010,5510.405,793305.735,157,787795.33
2018-01-19 01:17:51,2.49,4000,False,NaN,5082.705,NaN,Milkduds,5.79,True,FamousAmos_small,8.28,True,MDMMT_0010,5082.705,800146.03,158,795063.325
2018-01-19 01:17:51,-1.45,4000,False,NaN,5339.485,NaN,Dots_one,6.4,True,KitKat_small,4.95,True,MDMMT_0010,5339.485,806228.04,159,800888.555
2018-01-19 01:17:51,-0.79,4000,False,NaN,4999.63,NaN,Reeses,2.39,True,Cheezits,1.6,True,MDMMT_0010,4999.63,811974.455,160,806974.825
2018-01-19 01:17:51,2.2,4000,False,NaN,5119.005,NaN,Lollipopred,7.65,True,AnimalCrackers,9.85,True,MDMMT_0010,5119.005,817909.84,161,812790.835
2018-01-19 01:17:51,-1.72,4000,False,NaN,5728.53,NaN,Whatchamacallit,3.09,True,Butterfinger,1.37,True,MDMMT_0010,5728.53,824608.745,162,818880.215
2018-01-19 01:17:51,-2.52,4000,False,NaN,5898.06,NaN,SourSkittles,6.92,True,FigNewton_small,4.4,True,MDMMT_0010,5898.06,832028.6,163,826130.54
2018-01-19 01:17:51,0.24,4000,False,NaN,5185.96,NaN,MrGoodbar,1.76,True,Ruffles,2.0,True,MDMMT_0010,5185.96,838015.725,164,832829.765
2018-01-19 01:17:51,0.75,4000,False,NaN,5127.295,NaN,Milano,7.53,True,FamousAmos_small,8.28,True,MDMMT_0010,5127.295,843917.97,165,838790.675
2018-01-19 01:17:51,0.18,4000,False,NaN,5067.865,NaN,Goldfish,4.5,True,Granolabar,4.68,True,MDMMT_0010,5067.865,849877.805,166,844809.94
2018-01-19 01:17:51,4.12,4000,False,NaN,4999.265,NaN,TeddyGrahamschocolate,0.28,True,FigNewton_small,4.4,True,MDMMT_0010,4999.265,855790.325,167,850791.06
2018-01-19 01:17:51,0.09,4000,False,NaN,5365.485,NaN,Ruffles,2.0,True,Laysclassic,2.09,True,MDMMT_0010,5365.485,862227.425,168,856861.94
2018-01-19 01:17:51,2.0,4000,False,NaN,5038.335,NaN,WheatThins,0.39,True,Reeses,2.39,True,MDMMT_0010,5038.335,867934.275,169,862895.94
2018-01-19 01:17:51,-0.14,4000,False,NaN,5237.57,NaN,Jollyranchergreen,1.42,True,Nutterbutter,1.28,True,MDMMT_0010,5237.57,874028.395,170,868790.825
2018-01-19 01:17:51,0.05,4000,False,NaN,5006.43,NaN,BabyRuth,2.6,True,starburst,2.65,True,MDMMT_0010,5006.43,879803.17,171,874796.74
2018-01-19 01:17:51,0.05,4000,False,NaN,5133.235,NaN,Butterfinger,1.37,True,Jollyranchergreen,1.42,True,MDMMT_0010,5133.235,886010.88,172,880877.645
2018-01-19 01:17:51,4.11,4000,False,NaN,5549.655,NaN,WheatThins,0.39,True,Goldfish,4.5,True,MDMMT_0010,5549.655,892353.5,173,886803.845
2018-01-19 01:17:51,1.0,4000,False,NaN,4593.985,NaN,Snickers,8.85,True,AnimalCrackers,9.85,True,MDMMT_0010,4593.985,898790.39,174,894196.405
2018-01-19 01:17:51,-0.51,4000,False,NaN,4881.845,NaN,BabyRuth,2.6,True,Laysclassic,2.09,True,MDMMT_0010,4881.845,904790.415,175,899908.57
2018-01-19 01:17:51,0.28,4000,False,NaN,5091.76,NaN,RitzBitz2,0.0,True,TeddyGrahamschocolate,0.28,True,MDMMT_0010,5091.76,910882.54,176,905790.78
2018-01-19 01:17:51,2.33,4000,False,NaN,5175.115,NaN,Fritos,6.65,True,PopTartsStrawberry,8.98,True,MDMMT_0010,5175.115,917037.15,177,911862.035
2018-01-19 01:17:51,3.31,4000,False,NaN,5515.265,NaN,ChipsAhoy_small,5.54,True,Snickers,8.85,True,MDMMT_0010,5515.265,923308.17,178,917792.905
2018-01-19 01:17:51,-0.09,4000,False,NaN,5485.55,NaN,Laffytaffyred_one,0.96,True,MrsFields,0.87,True,MDMMT_0010,5485.55,930276.555,179,924791.005
2018-01-19 01:17:51,0.01,4000,False,NaN,4835.855,NaN,Cheese_PeanutButterCrackers,5.7,True,Crunch,5.71,True,MDMMT_0010,4835.855,935790.19,180,930954.335
2018-01-19 01:17:51,0.27,4000,False,NaN,5978.925,NaN,Fritos,6.65,True,SourSkittles,6.92,True,MDMMT_0010,5978.925,942774.965,181,936796.04
2018-01-19 01:17:51,0.1,4000,False,NaN,5086.39,NaN,FigNewton_small,4.4,True,Goldfish,4.5,True,MDMMT_0010,5086.39,949008.39,182,943922.0
2018-01-19 01:17:51,0.11,4000,False,NaN,5969.0,NaN,TeddyGrahamschocolate,0.28,True,WheatThins,0.39,True,MDMMT_0010,5969.0,955775.025,183,949806.025
2018-01-19 01:17:51,-1.69,4000,False,NaN,4799.145,NaN,Ghiradelli_milk_Almonds,5.42,True,MilkyWay,3.73,True,MDMMT_0010,4799.145,961806.71,184,957007.565
2018-01-19 01:17:51,-0.04,4000,False,NaN,4869.215,NaN,Ghiradelli_milk,0.04,True,RitzBitz2,0.0,True,MDMMT_0010,4869.215,967790.435,185,962921.22
2018-01-19 01:17:51,0.48,4000,False,NaN,5007.805,NaN,FamousAmos_small,8.28,True,PayDay,8.76,True,MDMMT_0010,5007.805,973823.39,186,968815.585
2018-01-19 01:17:51,1.8,4000,False,NaN,4900.28,NaN,PeanutMMs,2.7,True,Goldfish,4.5,True,MDMMT_0010,4900.28,979790.45,187,974890.17
2018-01-19 01:17:51,-0.01,4000,False,NaN,5880.38,NaN,Twix,2.65,True,FlamingCheetos,2.64,True,MDMMT_0010,5880.38,986806.305,188,980925.925
2018-01-19 01:17:51,4.78,4000,False,NaN,5915.415,NaN,3Musketeers,1.87,True,Fritos,6.65,True,MDMMT_0010,5915.415,993822.7,189,987907.285
2018-01-19 01:17:51,-0.17,4000,False,NaN,5012.07,NaN,Fritos,6.65,True,Hersheykisses,6.48,True,MDMMT_0010,5012.07,999885.985,190,994873.915
2018-01-19 01:17:51,4.61,4000,False,NaN,5979.345,NaN,Chocolate_mm,1.87,True,Hersheykisses,6.48,True,MDMMT_0010,5979.345,1006785.515,191,1000806.17
2018-01-19 01:17:51,-4.82,4000,False,NaN,5752.775,NaN,Riprolls,6.82,True,Ruffles,2.0,True,MDMMT_0010,5752.775,1013675.82,192,1007923.045
2018-01-19 01:17:51,-1.16,4000,False,NaN,4999.455,NaN,TootsieRolls,4.14,True,Funyuns_small,2.98,True,MDMMT_0010,4999.455,1019790.405,193,1014790.95
2018-01-19 01:17:51,-0.08,4000,False,NaN,4921.665,NaN,CheesyDoritos,10.0,True,Oreos,9.92,True,MDMMT_0010,4921.665,1025790.48,194,1020868.815
2018-01-19 01:17:51,-0.42,4000,False,NaN,5910.915,NaN,Riprolls,6.82,True,Dots_one,6.4,True,MDMMT_0010,5910.915,1032702.03,195,1026791.115
2018-01-19 01:17:51,2.98,4000,False,NaN,5493.36,NaN,Goldfish,4.5,True,RiceKrispyTreat_small,7.48,True,MDMMT_0010,5493.36,1039284.14,196,1033790.78
2018-01-19 01:17:51,-1.06,4000,False,NaN,4830.98,NaN,FigNewton_small,4.4,True,Cheetos,3.34,True,MDMMT_0010,4830.98,1044864.075,197,1040033.095
2018-01-19 01:17:51,-0.27,4000,False,NaN,5485.215,NaN,3Musketeers,1.87,True,Cheezits,1.6,True,MDMMT_0010,5485.215,1051472.32,198,1045987.105
2018-01-19 01:17:51,1.69,4000,False,NaN,5413.985,NaN,Laffytaffyred_one,0.96,True,starburst,2.65,True,MDMMT_0010,5413.985,1058220.02,199,1052806.035
2018-01-19 01:17:51,-3.99,4000,False,NaN,5273.955,NaN,KitKat_small,4.95,True,Laffytaffyred_one,0.96,True,MDMMT_0010,5273.955,1064208.35,200,1058934.395
2018-01-19 01:17:51,1.64,4000,False,NaN,5965.735,NaN,Twix,2.65,True,Skittles,4.29,True,MDMMT_0010,5965.735,1070901.555,201,1064935.82
2018-01-19 01:17:51,0.06,4000,False,NaN,5949.67,NaN,Hersheymilk_several,4.89,True,KitKat_small,4.95,True,MDMMT_0010,5949.67,1077802.58,202,1071852.91
2018-01-19 01:17:51,1.53,4000,False,NaN,5332.635,NaN,Almondjoy,1.17,True,PeanutMMs,2.7,True,MDMMT_0010,5332.635,1084219.125,203,1078886.49
2018-01-19 01:17:51,2.86,4000,False,NaN,5450.4,NaN,Sourpatch,4.67,True,Milano,7.53,True,MDMMT_0010,5450.4,1090251.14,204,1084800.74
2018-01-19 01:17:51,2.93,4000,False,NaN,5914.49,NaN,SourSkittles,6.92,True,AnimalCrackers,9.85,True,MDMMT_0010,5914.49,1096900.79,205,1090986.3
2018-01-19 01:17:51,-1.05,4000,False,NaN,5134.695,NaN,Goldfish,4.5,True,Keeblerfudgestripes,3.45,True,MDMMT_0010,5134.695,1102953.605,206,1097818.91
2018-01-19 01:17:51,0.74,4000,False,NaN,5983.06,NaN,100grand_small,0.68,True,Jollyranchergreen,1.42,True,MDMMT_0010,5983.06,1109782.87,207,1103799.81
2018-01-19 01:17:51,-4.83,4000,False,NaN,5214.585,NaN,SourSkittles,6.92,True,Laysclassic,2.09,True,MDMMT_0010,5214.585,1116016.335,208,1110801.75
2018-01-19 01:17:51,0.22,4000,False,NaN,4989.02,NaN,Chocolate_mm,1.87,True,Laysclassic,2.09,True,MDMMT_0010,4989.02,1121790.44,209,1116801.42
