date,maxTrialTime,rating,receivedResponse,rt,stimulus1,stimulus1Loaded,subjectID,trialDuration,trialEndTime,trialN,trialStartTime
2018-01-26 15:52:08,NaN,4.56,True,975.205,MrsFields,True,MDMMT_0002,975.205,1024.17,0,48.965
2018-01-26 15:52:08,NaN,2.67,True,506.19,100grand_small,True,MDMMT_0002,506.19,1533.14,1,1026.95
2018-01-26 15:52:08,NaN,1.07,True,377.63,TootsieRolls,True,MDMMT_0002,377.63,1913.225,2,1535.595
2018-01-26 15:52:08,NaN,0.4,True,361.105,Cheetos,True,MDMMT_0002,361.105,2276.65,3,1915.545
2018-01-26 15:52:08,NaN,2.37,True,385.75,RitzBitz2,True,MDMMT_0002,385.75,2664.7,4,2278.95
2018-01-26 15:52:08,NaN,4.17,True,393.575,Milano,True,MDMMT_0002,393.575,3060.49,5,2666.915
2018-01-26 15:52:08,NaN,7.34,True,914.945,Ghiradelli_milk_Almonds,True,MDMMT_0002,914.945,3977.63,6,3062.685
2018-01-26 15:52:08,NaN,8.45,True,377.41,KitKat_small,True,MDMMT_0002,377.41,4357.26,7,3979.85
2018-01-26 15:52:08,NaN,9.7,True,410.445,Reeses,True,MDMMT_0002,410.445,4769.875,8,4359.43
2018-01-26 15:52:08,NaN,7.75,True,562.79,Snickers,True,MDMMT_0002,562.79,5334.96,9,4772.17
2018-01-26 15:52:08,NaN,6.17,True,466.64,AnimalCrackers,True,MDMMT_0002,466.64,5803.87,10,5337.23
2018-01-26 15:52:08,NaN,4.7,True,409.64,SourSkittles,True,MDMMT_0002,409.64,6215.835,11,5806.195
2018-01-26 15:52:08,NaN,3.35,True,426.195,Cheese_PeanutButterCrackers,True,MDMMT_0002,426.195,6644.255,12,6218.06
2018-01-26 15:52:08,NaN,1.17,True,1024.015,Oreos,True,MDMMT_0002,1024.015,7670.61,13,6646.595
2018-01-26 15:52:08,NaN,0.78,True,450.435,Cheezits,True,MDMMT_0002,450.435,8122.995,14,7672.56
2018-01-26 15:52:08,NaN,2.54,True,434.03,Granolabar,True,MDMMT_0002,434.03,8559.345,15,8125.315
2018-01-26 15:52:08,NaN,4.17,True,474.285,Funyuns_small,True,MDMMT_0002,474.285,9035.955,16,8561.67
2018-01-26 15:52:08,NaN,7.42,True,530.945,MrGoodbar,True,MDMMT_0002,530.945,9569.12,17,9038.175
2018-01-26 15:52:08,NaN,8.9,True,531.805,Toberlorone,True,MDMMT_0002,531.805,10102.5,18,9570.695
2018-01-26 15:52:08,NaN,9.81,True,482.545,Riprolls,True,MDMMT_0002,482.545,10587.39,19,10104.845
2018-01-26 15:52:08,NaN,8.68,True,401.82,BabyRuth,True,MDMMT_0002,401.82,10991.44,20,10589.62
2018-01-26 15:52:08,NaN,7.43,True,393.565,Chocolate_mm,True,MDMMT_0002,393.565,11387.32,21,10993.755
2018-01-26 15:52:08,NaN,6.56,True,434.08,PringlesRed,True,MDMMT_0002,434.08,11823.635,22,11389.555
2018-01-26 15:52:08,NaN,4.37,True,426.07,Doritosranch,True,MDMMT_0002,426.07,12251.935,23,11825.865
2018-01-26 15:52:08,NaN,3.03,True,506.795,ChipsAhoy_small,True,MDMMT_0002,506.795,12761.09,24,12254.295
2018-01-26 15:52:08,NaN,1.31,True,559.165,PopTartsStrawberry,True,MDMMT_0002,559.165,13322.6,25,12763.435
2018-01-26 15:52:08,NaN,0.01,True,458.625,PeanutMMs,True,MDMMT_0002,458.625,13783.41,26,13324.785
2018-01-26 15:52:08,NaN,0.21,True,870.145,starburst,True,MDMMT_0002,870.145,14655.93,27,13785.785
2018-01-26 15:52:08,NaN,1.14,True,458.175,Sourpatch,True,MDMMT_0002,458.175,15116.425,28,14658.25
2018-01-26 15:52:08,NaN,2.23,True,385.62,Butterfinger,True,MDMMT_0002,385.62,15504.35,29,15118.73
2018-01-26 15:52:08,NaN,2.82,True,490.55,Hersheykisses,True,MDMMT_0002,490.55,15997.225,30,15506.675
2018-01-26 15:52:08,NaN,4.03,True,425.775,PayDay,True,MDMMT_0002,425.775,16425.345,31,15999.57
2018-01-26 15:52:08,NaN,5.07,True,458.595,Whatchamacallit,True,MDMMT_0002,458.595,16886.35,32,16427.755
2018-01-26 15:52:08,NaN,6.12,True,304.88,Ruffles,True,MDMMT_0002,304.88,17193.09,33,16888.21
2018-01-26 15:52:08,NaN,7.14,True,543.375,Slimjim,True,MDMMT_0002,543.375,17738.82,34,17195.445
2018-01-26 15:52:08,NaN,8.28,True,482.38,WheatThins,True,MDMMT_0002,482.38,18223.395,35,17741.015
2018-01-26 15:52:08,NaN,9.29,True,450.26,FamousAmos_small,True,MDMMT_0002,450.26,18675.86,36,18225.6
2018-01-26 15:52:08,NaN,9.82,True,361.505,Goldfish,True,MDMMT_0002,361.505,19039.61,37,18678.105
2018-01-26 15:52:08,NaN,10.0,True,385.66,Skittles,True,MDMMT_0002,385.66,19427.48,38,19041.82
2018-01-26 15:52:08,NaN,9.82,True,409.68,FlamingCheetos,True,MDMMT_0002,409.68,19839.46,39,19429.78
2018-01-26 15:52:08,NaN,7.85,True,361.415,Keeblerfudgestripes,True,MDMMT_0002,361.415,20203.095,40,19841.68
2018-01-26 15:52:08,NaN,6.4,True,361.365,Jollyranchergreen,True,MDMMT_0002,361.365,20566.715,41,20205.35
2018-01-26 15:52:08,NaN,5.68,True,385.475,Laysclassic,True,MDMMT_0002,385.475,20954.59,42,20569.115
2018-01-26 15:52:08,NaN,4.46,True,401.72,Nutterbutter,True,MDMMT_0002,401.72,21358.685,43,20956.965
2018-01-26 15:52:08,NaN,2.98,True,575.435,MilkyWay,True,MDMMT_0002,575.435,21936.325,44,21360.89
2018-01-26 15:52:08,NaN,1.56,True,377.13,TeddyGrahamschocolate,True,MDMMT_0002,377.13,22316.055,45,21938.925
2018-01-26 15:52:08,NaN,0.56,True,361.335,RiceKrispyTreat_small,True,MDMMT_0002,361.335,22679.75,46,22318.415
2018-01-26 15:52:08,NaN,0.0,True,579.585,3Musketeers,True,MDMMT_0002,579.585,23261.52,47,22681.935
2018-01-26 15:52:08,NaN,0.51,True,474.55,Fritos,True,MDMMT_0002,474.55,23738.29,48,23263.74
2018-01-26 15:52:08,NaN,1.62,True,442.16,Laffytaffyred_one,True,MDMMT_0002,442.16,24182.66,49,23740.5
2018-01-26 15:52:08,NaN,3.14,True,417.785,Milkduds,True,MDMMT_0002,417.785,24602.855,50,24185.07
2018-01-26 15:52:08,NaN,4.67,True,353.245,Hersheymilk_several,True,MDMMT_0002,353.245,24958.485,51,24605.24
2018-01-26 15:52:08,NaN,5.93,True,571.205,Lollipopred,True,MDMMT_0002,571.205,25531.995,52,24960.79
2018-01-26 15:52:08,NaN,7.67,True,523.125,Crunch,True,MDMMT_0002,523.125,26057.405,53,25534.28
2018-01-26 15:52:08,NaN,8.7,True,490.54,Ghiradelli_milk,True,MDMMT_0002,490.54,26550.405,54,26059.865
2018-01-26 15:52:08,NaN,9.4,True,542.85,Dots_one,True,MDMMT_0002,542.85,27095.735,55,26552.885
2018-01-26 15:52:08,NaN,10.0,True,474.4,Twix,True,MDMMT_0002,474.4,27572.37,56,27097.97
2018-01-26 15:52:08,NaN,9.57,True,474.49,Almondjoy,True,MDMMT_0002,474.49,28049.2,57,27574.71
2018-01-26 15:52:08,NaN,7.68,True,498.62,FigNewton_small,True,MDMMT_0002,498.62,28550.215,58,28051.595
2018-01-26 15:52:08,NaN,5.17,True,377.51,CheesyDoritos,True,MDMMT_0002,377.51,28930.145,59,28552.635
