date,delta,maxTrialTime,receivedResponse,rsp,rt,selected,stimulus1,stimulus1Bid,stimulus1Loaded,stimulus2,stimulus2Bid,stimulus2Loaded,subjectID,trialDuration,trialEndTime,trialN,trialStartTime
2018-01-26 15:56:02,-2.73,4000,True,u,363.565,PeanutMMs,PeanutMMs,7.43,True,Whatchamacallit,4.7,True,MDMMT_0002,363.565,639.76,0,276.195
2018-01-26 15:56:02,2.73,4000,True,i,173.37,Ghiradelli_milk,Hersheykisses,1.98,True,Ghiradelli_milk,4.71,True,MDMMT_0002,173.37,1318.77,1,1145.4
2018-01-26 15:56:02,-1.71,4000,True,u,174.67,FigNewton_small,FigNewton_small,3.1,True,ChipsAhoy_small,1.39,True,MDMMT_0002,174.67,1998.69,2,1824.02
2018-01-26 15:56:02,-0.26,4000,True,u,139.125,Laysclassic,Laysclassic,5.79,True,Goldfish,5.53,True,MDMMT_0002,139.125,2646.67,3,2507.545
2018-01-26 15:56:02,-0.36,4000,True,u,86.875,Oreos,Oreos,4.53,True,3Musketeers,4.17,True,MDMMT_0002,86.875,3242.58,4,3155.705
2018-01-26 15:56:02,-0.7,4000,True,u,100.01,Doritosranch,Doritosranch,3.04,True,MilkyWay,2.34,True,MDMMT_0002,100.01,3851.57,5,3751.56
2018-01-26 15:56:02,-0.9,4000,True,u,176.745,Toberlorone,Toberlorone,4.65,True,Sourpatch,3.75,True,MDMMT_0002,176.745,4537.59,6,4360.845
2018-01-26 15:56:02,-2.53,4000,True,u,148.37,Ghiradelli_milk_Almonds,Ghiradelli_milk_Almonds,8.78,True,Keeblerfudgestripes,6.25,True,MDMMT_0002,148.37,5193.55,7,5045.18
2018-01-26 15:56:02,-4.07,4000,True,i,110.765,Ghiradelli_milk,Ghiradelli_milk_Almonds,8.78,True,Ghiradelli_milk,4.71,True,MDMMT_0002,110.765,5808.425,8,5697.66
2018-01-26 15:56:02,-0.23,4000,True,i,214.61,PringlesRed,Chocolate_mm,6.04,True,PringlesRed,5.81,True,MDMMT_0002,214.61,6530.49,9,6315.88
2018-01-26 15:56:02,-0.06,4000,True,i,254.32,Toberlorone,Ghiradelli_milk,4.71,True,Toberlorone,4.65,True,MDMMT_0002,254.32,7293.46,10,7039.14
2018-01-26 15:56:02,-1.36,4000,True,u,224.95,100grand_small,100grand_small,8.17,True,Cheezits,6.81,True,MDMMT_0002,224.95,8023.43,11,7798.48
2018-01-26 15:56:02,1.28,4000,True,i,218.345,Slimjim,Cheetos,1.12,True,Slimjim,2.4,True,MDMMT_0002,218.345,8750.345,12,8532.0
2018-01-26 15:56:02,4.25,4000,True,u,194.095,Funyuns_small,Funyuns_small,4.73,True,TootsieRolls,8.98,True,MDMMT_0002,194.095,9453.36,13,9259.265
2018-01-26 15:56:02,-0.22,4000,True,u,139.36,Laffytaffyred_one,Laffytaffyred_one,3.9,True,Nutterbutter,3.68,True,MDMMT_0002,139.36,10100.335,14,9960.975
2018-01-26 15:56:02,1.64,4000,True,i,238.965,PringlesRed,3Musketeers,4.17,True,PringlesRed,5.81,True,MDMMT_0002,238.965,10844.3,15,10605.335
2018-01-26 15:56:02,-1.2,4000,True,u,258.735,FamousAmos_small,FamousAmos_small,4.34,True,Ruffles,3.14,True,MDMMT_0002,258.735,11612.545,16,11353.81
2018-01-26 15:56:02,-1.54,4000,True,i,143.23,Fritos,CheesyDoritos,3.1,True,Fritos,1.56,True,MDMMT_0002,143.23,12260.24,17,12117.01
2018-01-26 15:56:02,-2.67,4000,True,i,318.09,MilkyWay,RitzBitz2,5.01,True,MilkyWay,2.34,True,MDMMT_0002,318.09,13087.275,18,12769.185
2018-01-26 15:56:02,-0.49,4000,True,u,265.86,3Musketeers,3Musketeers,4.17,True,Nutterbutter,3.68,True,MDMMT_0002,265.86,13862.165,19,13596.305
2018-01-26 15:56:02,-0.05,4000,True,i,433.98,Toberlorone,Whatchamacallit,4.7,True,Toberlorone,4.65,True,MDMMT_0002,433.98,14805.22,20,14371.24
2018-01-26 15:56:02,0.01,4000,True,i,192.63,Ghiradelli_milk,Whatchamacallit,4.7,True,Ghiradelli_milk,4.71,True,MDMMT_0002,192.63,15504.085,21,15311.455
2018-01-26 15:56:02,3.12,4000,True,u,426.02,BabyRuth,BabyRuth,6.78,True,Dots_one,9.9,True,MDMMT_0002,426.02,16437.125,22,16011.105
2018-01-26 15:56:02,0.43,4000,True,i,414.71,CheesyDoritos,Jollyranchergreen,2.67,True,CheesyDoritos,3.1,True,MDMMT_0002,414.71,17361.095,23,16946.385
2018-01-26 15:56:02,2.22,4000,True,i,340.725,WheatThins,Toberlorone,4.65,True,WheatThins,6.87,True,MDMMT_0002,340.725,18210.92,24,17870.195
2018-01-26 15:56:02,0.36,4000,True,i,539.375,KitKat_small,SourSkittles,4.18,True,KitKat_small,4.54,True,MDMMT_0002,539.375,19255.94,25,18716.565
2018-01-26 15:56:02,-4.37,4000,True,u,340.64,Dots_one,Dots_one,9.9,True,Goldfish,5.53,True,MDMMT_0002,340.64,20105.705,26,19765.065
2018-01-26 15:56:02,0.5,4000,True,u,341.905,TeddyGrahamschocolate,TeddyGrahamschocolate,1.48,True,Hersheykisses,1.98,True,MDMMT_0002,341.905,20955.915,27,20614.01
2018-01-26 15:56:02,2.42,4000,True,u,249.325,starburst,starburst,5.01,True,PeanutMMs,7.43,True,MDMMT_0002,249.325,21714.8,28,21465.475
2018-01-26 15:56:02,1.7,4000,True,u,246.12,Snickers,Snickers,4.09,True,Laysclassic,5.79,True,MDMMT_0002,246.12,22469.77,29,22223.65
2018-01-26 15:56:02,-0.03,4000,True,i,371.555,Whatchamacallit,Funyuns_small,4.73,True,Whatchamacallit,4.7,True,MDMMT_0002,371.555,23350.685,30,22979.13
2018-01-26 15:56:02,1.71,4000,True,u,267.215,Crunch,Crunch,2.04,True,Sourpatch,3.75,True,MDMMT_0002,267.215,24124.67,31,23857.455
2018-01-26 15:56:02,3.74,4000,True,u,313.095,Doritosranch,Doritosranch,3.04,True,BabyRuth,6.78,True,MDMMT_0002,313.095,24946.66,32,24633.565
2018-01-26 15:56:02,4.33,4000,True,u,320.225,CheesyDoritos,CheesyDoritos,3.1,True,PeanutMMs,7.43,True,MDMMT_0002,320.225,25773.645,33,25453.42
2018-01-26 15:56:03,-0.06,4000,True,u,336.3,WheatThins,WheatThins,6.87,True,Cheezits,6.81,True,MDMMT_0002,336.3,26617.625,34,26281.325
2018-01-26 15:56:03,0.0,4000,True,i,369.635,MilkyWay,Skittles,2.34,True,MilkyWay,2.34,True,MDMMT_0002,369.635,27492.545,35,27122.91
2018-01-26 15:56:03,0.0,4000,True,u,238.87,Ghiradelli_milk,Ghiradelli_milk,4.71,True,FlamingCheetos,4.71,True,MDMMT_0002,238.87,28240.485,36,28001.615
2018-01-26 15:56:03,-0.21,4000,True,u,257.355,Ruffles,Ruffles,3.14,True,Lollipopred,2.93,True,MDMMT_0002,257.355,29005.43,37,28748.075
2018-01-26 15:56:03,-4.5,4000,True,i,296.215,starburst,MrGoodbar,9.51,True,starburst,5.01,True,MDMMT_0002,296.215,29808.44,38,29512.225
2018-01-26 15:56:03,-5.62,4000,True,i,242.205,Cheese_PeanutButterCrackers,MrGoodbar,9.51,True,Cheese_PeanutButterCrackers,3.89,True,MDMMT_0002,242.205,30555.41,39,30313.205
2018-01-26 15:56:03,-0.8,4000,True,i,285.11,RitzBitz2,PringlesRed,5.81,True,RitzBitz2,5.01,True,MDMMT_0002,285.11,31346.23,40,31061.12
2018-01-26 15:56:03,3.65,4000,True,i,226.715,Reeses,Keeblerfudgestripes,6.25,True,Reeses,9.9,True,MDMMT_0002,226.715,32082.335,41,31855.62
2018-01-26 15:56:03,0.04,4000,True,i,306.395,Ruffles,RiceKrispyTreat_small,3.1,True,Ruffles,3.14,True,MDMMT_0002,306.395,32893.26,42,32586.865
2018-01-26 15:56:03,0.0,4000,True,u,245.275,FigNewton_small,FigNewton_small,3.1,True,RiceKrispyTreat_small,3.1,True,MDMMT_0002,245.275,33643.275,43,33398.0
2018-01-26 15:56:03,-0.25,4000,True,u,260.6,FamousAmos_small,FamousAmos_small,4.34,True,Snickers,4.09,True,MDMMT_0002,260.6,34409.24,44,34148.64
2018-01-26 15:56:03,5.47,4000,True,i,184.465,Ghiradelli_milk_Almonds,Hersheymilk_several,3.31,True,Ghiradelli_milk_Almonds,8.78,True,MDMMT_0002,184.465,35101.155,45,34916.69
2018-01-26 15:56:03,0.09,4000,True,u,191.215,MilkyWay,MilkyWay,2.34,True,Milkduds,2.43,True,MDMMT_0002,191.215,35801.165,46,35609.95
2018-01-26 15:56:03,0.06,4000,True,i,203.875,FlamingCheetos,Toberlorone,4.65,True,FlamingCheetos,4.71,True,MDMMT_0002,203.875,36514.065,47,36310.19
2018-01-26 15:56:03,-3.25,4000,True,u,153.185,Ghiradelli_milk_Almonds,Ghiradelli_milk_Almonds,8.78,True,Goldfish,5.53,True,MDMMT_0002,153.185,37176.08,48,37022.895
2018-01-26 15:56:03,-0.36,4000,True,i,230.395,Cheetos,TeddyGrahamschocolate,1.48,True,Cheetos,1.12,True,MDMMT_0002,230.395,37914.905,49,37684.51
2018-01-26 15:56:03,-2.27,4000,True,i,295.53,KitKat_small,Cheezits,6.81,True,KitKat_small,4.54,True,MDMMT_0002,295.53,38719.005,50,38423.475
2018-01-26 15:56:03,0.75,4000,True,i,225.03,Dots_one,PopTartsStrawberry,9.15,True,Dots_one,9.9,True,MDMMT_0002,225.03,39453.005,51,39227.975
2018-01-26 15:56:03,0.28,4000,True,i,240.995,starburst,Funyuns_small,4.73,True,starburst,5.01,True,MDMMT_0002,240.995,40202.97,52,39961.975
2018-01-26 15:56:03,0.14,4000,True,i,235.94,Cheese_PeanutButterCrackers,Sourpatch,3.75,True,Cheese_PeanutButterCrackers,3.89,True,MDMMT_0002,235.94,40947.94,53,40712.0
2018-01-26 15:56:03,0.04,4000,True,i,254.19,Ruffles,FigNewton_small,3.1,True,Ruffles,3.14,True,MDMMT_0002,254.19,41710.86,54,41456.67
2018-01-26 15:56:03,-1.66,4000,True,u,310.785,PayDay,PayDay,4.06,True,Slimjim,2.4,True,MDMMT_0002,310.785,42530.875,55,42220.09
2018-01-26 15:56:03,-1.08,4000,True,u,160.605,SourSkittles,SourSkittles,4.18,True,CheesyDoritos,3.1,True,MDMMT_0002,160.605,43200.79,56,43040.185
2018-01-26 15:56:03,4.08,4000,True,u,261.57,Granolabar,Granolabar,0.01,True,Snickers,4.09,True,MDMMT_0002,261.57,43970.8,57,43709.23
2018-01-26 15:56:03,1.7,4000,True,u,255.77,AnimalCrackers,AnimalCrackers,1.98,True,Nutterbutter,3.68,True,MDMMT_0002,255.77,44732.77,58,44477.0
2018-01-26 15:56:03,-1.06,4000,True,u,184.545,Hersheykisses,Hersheykisses,1.98,True,Milano,0.92,True,MDMMT_0002,184.545,45423.74,59,45239.195
2018-01-26 15:56:03,-0.36,4000,True,u,227.555,starburst,starburst,5.01,True,Toberlorone,4.65,True,MDMMT_0002,227.555,46157.71,60,45930.155
2018-01-26 15:56:03,4.3,4000,True,u,252.735,Riprolls,Riprolls,4.85,True,PopTartsStrawberry,9.15,True,MDMMT_0002,252.735,46919.67,61,46666.935
2018-01-26 15:56:03,-2.47,4000,True,i,218.68,PeanutMMs,Reeses,9.9,True,PeanutMMs,7.43,True,MDMMT_0002,218.68,47642.63,62,47423.95
2018-01-26 15:56:03,1.08,4000,True,i,207.075,Laysclassic,Ghiradelli_milk,4.71,True,Laysclassic,5.79,True,MDMMT_0002,207.075,48358.56,63,48151.485
2018-01-26 15:56:03,-2.3,4000,True,i,166.83,Almondjoy,Jollyranchergreen,2.67,True,Almondjoy,0.37,True,MDMMT_0002,166.83,49029.52,64,48862.69
2018-01-26 15:56:03,-1.92,4000,True,i,215.105,Cheetos,Doritosranch,3.04,True,Cheetos,1.12,True,MDMMT_0002,215.105,49753.545,65,49538.44
2018-01-26 15:56:03,-0.63,4000,True,i,79.755,Laffytaffyred_one,Oreos,4.53,True,Laffytaffyred_one,3.9,True,MDMMT_0002,79.755,50342.295,66,50262.54
2018-01-26 15:56:03,-0.55,4000,True,i,76.105,Almondjoy,Milano,0.92,True,Almondjoy,0.37,True,MDMMT_0002,76.105,50927.4,67,50851.295
2018-01-26 15:56:03,0.78,4000,True,i,108.76,Snickers,Hersheymilk_several,3.31,True,Snickers,4.09,True,MDMMT_0002,108.76,51539.35,68,51430.59
2018-01-26 15:56:03,-0.51,4000,True,i,92.15,Goldfish,Chocolate_mm,6.04,True,Goldfish,5.53,True,MDMMT_0002,92.15,52140.365,69,52048.215
2018-01-26 15:56:03,-0.03,4000,True,i,153.975,Slimjim,Milkduds,2.43,True,Slimjim,2.4,True,MDMMT_0002,153.975,52798.34,70,52644.365
2018-01-26 15:56:03,-0.81,4000,True,i,147.13,Cheese_PeanutButterCrackers,Whatchamacallit,4.7,True,Cheese_PeanutButterCrackers,3.89,True,MDMMT_0002,147.13,53450.33,71,53303.2
2018-01-26 15:56:03,-1.62,4000,True,i,164.23,TeddyGrahamschocolate,RiceKrispyTreat_small,3.1,True,TeddyGrahamschocolate,1.48,True,MDMMT_0002,164.23,54123.275,72,53959.045
2018-01-26 15:56:03,0.37,4000,True,i,115.525,Nutterbutter,Hersheymilk_several,3.31,True,Nutterbutter,3.68,True,MDMMT_0002,115.525,54742.26,73,54626.735
2018-01-26 15:56:03,-3.41,4000,True,i,194.705,Cheetos,Oreos,4.53,True,Cheetos,1.12,True,MDMMT_0002,194.705,55441.285,74,55246.58
2018-01-26 15:56:03,1.42,4000,True,i,108.145,MilkyWay,Milano,0.92,True,MilkyWay,2.34,True,MDMMT_0002,108.145,56058.255,75,55950.11
2018-01-26 15:56:03,0.48,4000,True,i,101.16,KitKat_small,PayDay,4.06,True,KitKat_small,4.54,True,MDMMT_0002,101.16,56668.23,76,56567.07
2018-01-26 15:56:03,2.25,4000,True,i,143.4,BabyRuth,Oreos,4.53,True,BabyRuth,6.78,True,MDMMT_0002,143.4,57316.205,77,57172.805
2018-01-26 15:56:03,-3.77,4000,True,i,124.225,RiceKrispyTreat_small,WheatThins,6.87,True,RiceKrispyTreat_small,3.1,True,MDMMT_0002,124.225,57949.125,78,57824.9
2018-01-26 15:56:03,-2.81,4000,True,i,145.25,Crunch,Riprolls,4.85,True,Crunch,2.04,True,MDMMT_0002,145.25,58602.13,79,58456.88
2018-01-26 15:56:03,-3.42,4000,True,i,59.415,Milano,FamousAmos_small,4.34,True,Milano,0.92,True,MDMMT_0002,59.415,59166.11,80,59106.695
2018-01-26 15:56:03,0.0,4000,True,i,94.6,Dots_one,Reeses,9.9,True,Dots_one,9.9,True,MDMMT_0002,94.6,59785.065,81,59690.465
2018-01-26 15:56:03,-0.92,4000,True,u,139.105,Reeses,Reeses,9.9,True,TootsieRolls,8.98,True,MDMMT_0002,139.105,60431.895,82,60292.79
2018-01-26 15:56:03,-0.73,4000,True,u,74.43,MrGoodbar,MrGoodbar,9.51,True,Ghiradelli_milk_Almonds,8.78,True,MDMMT_0002,74.43,61013.045,83,60938.615
2018-01-26 15:56:03,0.65,4000,True,u,192.37,PayDay,PayDay,4.06,True,Ghiradelli_milk,4.71,True,MDMMT_0002,192.37,61709.01,84,61516.64
2018-01-26 15:56:03,0.33,4000,True,u,145.875,Jollyranchergreen,Jollyranchergreen,2.67,True,Butterfinger,3.0,True,MDMMT_0002,145.875,62360.965,85,62215.09
2018-01-26 15:56:03,1.86,4000,True,u,12.76,SourSkittles,SourSkittles,4.18,True,Chocolate_mm,6.04,True,MDMMT_0002,12.76,62883.955,86,62871.195
2018-01-26 15:56:03,0.16,4000,True,u,52.01,Laffytaffyred_one,Laffytaffyred_one,3.9,True,PayDay,4.06,True,MDMMT_0002,52.01,63444.865,87,63392.855
2018-01-26 15:56:03,-0.11,4000,True,u,478.59,3Musketeers,3Musketeers,4.17,True,PayDay,4.06,True,MDMMT_0002,478.59,64447.965,88,63969.375
2018-01-26 15:56:03,3.71,4000,True,u,70.59,FigNewton_small,FigNewton_small,3.1,True,Cheezits,6.81,True,MDMMT_0002,70.59,65023.64,89,64953.05
2018-01-26 15:56:03,1.67,4000,True,u,212.025,Almondjoy,Almondjoy,0.37,True,Crunch,2.04,True,MDMMT_0002,212.025,65748.825,90,65536.8
2018-01-26 15:56:03,0.36,4000,True,u,42.83,PopTartsStrawberry,PopTartsStrawberry,9.15,True,MrGoodbar,9.51,True,MDMMT_0002,42.83,66298.785,91,66255.955
2018-01-26 15:56:03,5.84,4000,True,i,2919.365,Dots_one,PayDay,4.06,True,Dots_one,9.9,True,MDMMT_0002,2919.365,69756.695,92,66837.33
2018-01-26 15:56:03,-2.2,4000,True,i,245.415,BabyRuth,TootsieRolls,8.98,True,BabyRuth,6.78,True,MDMMT_0002,245.415,70510.57,93,70265.155
2018-01-26 15:56:03,-0.35,4000,True,u,476.8,Oreos,Oreos,4.53,True,SourSkittles,4.18,True,MDMMT_0002,476.8,71494.615,94,71017.815
2018-01-26 15:56:03,-0.88,4000,True,u,618.165,MrsFields,MrsFields,0.89,True,Granolabar,0.01,True,MDMMT_0002,618.165,72619.47,95,72001.305
2018-01-26 15:56:03,-1.55,4000,True,u,2204.625,Cheese_PeanutButterCrackers,Cheese_PeanutButterCrackers,3.89,True,Skittles,2.34,True,MDMMT_0002,2204.625,75332.35,96,73127.725
2018-01-26 15:56:03,3.47,4000,True,i,562.125,MrGoodbar,Chocolate_mm,6.04,True,MrGoodbar,9.51,True,MDMMT_0002,562.125,76402.3,97,75840.175
2018-01-26 15:56:03,0.62,4000,True,u,289.24,Keeblerfudgestripes,Keeblerfudgestripes,6.25,True,WheatThins,6.87,True,MDMMT_0002,289.24,77200.245,98,76911.005
2018-01-26 15:56:03,-2.75,4000,True,u,834.49,Funyuns_small,Funyuns_small,4.73,True,AnimalCrackers,1.98,True,MDMMT_0002,834.49,78543.205,99,77708.715
2018-01-26 15:56:03,-0.08,4000,True,u,683.135,Fritos,Fritos,1.56,True,TeddyGrahamschocolate,1.48,True,MDMMT_0002,683.135,79734.28,100,79051.145
2018-01-26 15:56:03,-0.2,4000,True,u,478.365,KitKat_small,KitKat_small,4.54,True,FamousAmos_small,4.34,True,MDMMT_0002,478.365,80721.24,101,80242.875
2018-01-26 15:56:03,-0.08,4000,True,i,981.995,Snickers,3Musketeers,4.17,True,Snickers,4.09,True,MDMMT_0002,981.995,82212.17,102,81230.175
2018-01-26 15:56:03,2.34,4000,True,u,1182.195,Cheezits,Cheezits,6.81,True,PopTartsStrawberry,9.15,True,MDMMT_0002,1182.195,83899.93,103,82717.735
2018-01-26 15:56:03,-2.08,4000,True,u,3292.46,Cheezits,Cheezits,6.81,True,Funyuns_small,4.73,True,MDMMT_0002,3292.46,87701.8,104,84409.34
2018-01-26 15:56:03,-1.52,4000,True,u,3922.0,Ruffles,Ruffles,3.14,True,Twix,1.62,True,MDMMT_0002,3922.0,92131.73,105,88209.73
2018-01-26 15:56:03,3.15,4000,True,u,1246.255,ChipsAhoy_small,ChipsAhoy_small,1.39,True,KitKat_small,4.54,True,MDMMT_0002,1246.255,93887.645,106,92641.39
2018-01-26 15:56:03,-0.1,4000,True,u,1462.31,RiceKrispyTreat_small,RiceKrispyTreat_small,3.1,True,Butterfinger,3.0,True,MDMMT_0002,1462.31,95856.57,107,94394.26
2018-01-26 15:56:03,3.34,4000,True,u,2068.085,PringlesRed,PringlesRed,5.81,True,PopTartsStrawberry,9.15,True,MDMMT_0002,2068.085,98433.32,108,96365.235
2018-01-26 15:56:03,0.73,4000,True,u,375.91,MrsFields,MrsFields,0.89,True,Twix,1.62,True,MDMMT_0002,375.91,99317.28,109,98941.37
2018-01-26 15:56:03,0.04,4000,True,u,2603.2,Butterfinger,Butterfinger,3.0,True,Doritosranch,3.04,True,MDMMT_0002,2603.2,102429.285,110,99826.085
2018-01-26 15:56:03,-1.97,4000,True,u,280.915,AnimalCrackers,AnimalCrackers,1.98,True,Granolabar,0.01,True,MDMMT_0002,280.915,103218.105,111,102937.19
2018-01-26 15:56:03,0.09,4000,True,i,528.885,Milkduds,Skittles,2.34,True,Milkduds,2.43,True,MDMMT_0002,528.885,104256.045,112,103727.16
2018-01-26 15:56:03,6.0,4000,True,u,2003.61,Laffytaffyred_one,Laffytaffyred_one,3.9,True,Reeses,9.9,True,MDMMT_0002,2003.61,106769.075,113,104765.465
2018-01-26 15:56:03,0.67,4000,True,i,2917.985,RiceKrispyTreat_small,Milkduds,2.43,True,RiceKrispyTreat_small,3.1,True,MDMMT_0002,2917.985,110195.77,114,107277.785
2018-01-26 15:56:03,-0.53,4000,True,u,2151.315,BabyRuth,BabyRuth,6.78,True,Keeblerfudgestripes,6.25,True,MDMMT_0002,2151.315,112855.805,115,110704.49
2018-01-26 15:56:03,-0.58,4000,True,u,263.21,Cheese_PeanutButterCrackers,Cheese_PeanutButterCrackers,3.89,True,Hersheymilk_several,3.31,True,MDMMT_0002,263.21,113627.67,116,113364.46
2018-01-26 15:56:03,2.08,4000,False,NaN,4003.66,NaN,Milano,0.92,True,Butterfinger,3.0,True,MDMMT_0002,4003.66,118140.185,117,114136.525
2018-01-26 15:56:03,-0.45,4000,True,u,1314.195,FamousAmos_small,FamousAmos_small,4.34,True,Cheese_PeanutButterCrackers,3.89,True,MDMMT_0002,1314.195,119960.49,118,118646.295
2018-01-26 15:56:03,0.25,4000,True,u,202.24,Laysclassic,Laysclassic,5.79,True,Chocolate_mm,6.04,True,MDMMT_0002,202.24,120671.385,119,120469.145
2018-01-26 15:56:03,0.39,4000,True,i,199.975,Dots_one,MrGoodbar,9.51,True,Dots_one,9.9,True,MDMMT_0002,199.975,121380.35,120,121180.375
2018-01-26 15:56:03,-1.38,4000,True,u,14.825,Butterfinger,Butterfinger,3.0,True,Twix,1.62,True,MDMMT_0002,14.825,121904.315,121,121889.49
2018-01-26 15:56:03,3.25,4000,True,u,179.955,Butterfinger,Butterfinger,3.0,True,Keeblerfudgestripes,6.25,True,MDMMT_0002,179.955,122592.29,122,122412.335
2018-01-26 15:56:04,-0.33,4000,True,u,2590.76,Jollyranchergreen,Jollyranchergreen,2.67,True,MilkyWay,2.34,True,MDMMT_0002,2590.76,125688.235,123,123097.475
2018-01-26 15:56:04,-0.43,4000,True,u,1898.97,SourSkittles,SourSkittles,4.18,True,Sourpatch,3.75,True,MDMMT_0002,1898.97,128096.13,124,126197.16
2018-01-26 15:56:04,-2.42,4000,True,i,55.195,Granolabar,Milkduds,2.43,True,Granolabar,0.01,True,MDMMT_0002,55.195,128659.88,125,128604.685
2018-01-26 15:56:04,0.36,4000,True,u,453.555,Twix,Twix,1.62,True,AnimalCrackers,1.98,True,MDMMT_0002,453.555,129634.065,126,129180.51
2018-01-26 15:56:04,-0.31,4000,True,u,61.4,RitzBitz2,RitzBitz2,5.01,True,Whatchamacallit,4.7,True,MDMMT_0002,61.4,130204.725,127,130143.325
2018-01-26 15:56:04,-2.64,4000,True,u,115.68,MrGoodbar,MrGoodbar,9.51,True,WheatThins,6.87,True,MDMMT_0002,115.68,130832.93,128,130717.25
2018-01-26 15:56:04,-2.04,4000,True,u,3919.315,Lollipopred,Lollipopred,2.93,True,MrsFields,0.89,True,MDMMT_0002,3919.315,135256.075,129,131336.76
2018-01-26 15:56:04,-0.75,4000,True,u,78.645,Reeses,Reeses,9.9,True,PopTartsStrawberry,9.15,True,MDMMT_0002,78.645,135842.76,130,135764.115
2018-01-26 15:56:04,0.11,4000,True,u,248.73,Lollipopred,Lollipopred,2.93,True,Doritosranch,3.04,True,MDMMT_0002,248.73,136596.675,131,136347.945
2018-01-26 15:56:04,1.06,4000,True,i,31.91,Doritosranch,Hersheykisses,1.98,True,Doritosranch,3.04,True,MDMMT_0002,31.91,137137.6,132,137105.69
2018-01-26 15:56:04,-3.13,4000,True,i,162.485,Slimjim,Goldfish,5.53,True,Slimjim,2.4,True,MDMMT_0002,162.485,137852.615,133,137690.13
2018-01-26 15:56:04,0.16,4000,True,u,292.275,Riprolls,Riprolls,4.85,True,RitzBitz2,5.01,True,MDMMT_0002,292.275,138653.59,134,138361.315
2018-01-26 15:56:04,-1.19,4000,True,u,38.875,Jollyranchergreen,Jollyranchergreen,2.67,True,TeddyGrahamschocolate,1.48,True,MDMMT_0002,38.875,139198.575,135,139159.7
2018-01-26 15:56:04,4.89,4000,True,u,153.375,RitzBitz2,RitzBitz2,5.01,True,Reeses,9.9,True,MDMMT_0002,153.375,139857.525,136,139704.15
2018-01-26 15:56:04,5.3,4000,True,u,147.155,Nutterbutter,Nutterbutter,3.68,True,TootsieRolls,8.98,True,MDMMT_0002,147.155,140513.475,137,140366.32
2018-01-26 15:56:04,0.53,4000,True,u,29.295,Slimjim,Slimjim,2.4,True,Lollipopred,2.93,True,MDMMT_0002,29.295,141048.48,138,141019.185
2018-01-26 15:56:04,0.19,4000,True,i,275.46,Snickers,Laffytaffyred_one,3.9,True,Snickers,4.09,True,MDMMT_0002,275.46,141876.44,139,141600.98
2018-01-26 15:56:04,-3.11,4000,True,u,151.275,Chocolate_mm,Chocolate_mm,6.04,True,Lollipopred,2.93,True,MDMMT_0002,151.275,142532.395,140,142381.12
2018-01-26 15:56:04,-0.31,4000,True,u,196.88,PayDay,PayDay,4.06,True,Sourpatch,3.75,True,MDMMT_0002,196.88,143238.375,141,143041.495
2018-01-26 15:56:04,0.81,4000,True,u,160.145,Laffytaffyred_one,Laffytaffyred_one,3.9,True,FlamingCheetos,4.71,True,MDMMT_0002,160.145,143905.3,142,143745.155
2018-01-26 15:56:04,-0.04,4000,True,i,97.855,CheesyDoritos,Ruffles,3.14,True,CheesyDoritos,3.1,True,MDMMT_0002,97.855,144509.315,143,144411.46
2018-01-26 15:56:04,0.78,4000,True,u,88.72,starburst,starburst,5.01,True,Laysclassic,5.79,True,MDMMT_0002,88.72,145104.265,144,145015.545
2018-01-26 15:56:04,1.22,4000,True,i,217.54,Oreos,Hersheymilk_several,3.31,True,Oreos,4.53,True,MDMMT_0002,217.54,145831.025,145,145613.485
2018-01-26 15:56:04,3.09,4000,True,i,319.755,FlamingCheetos,Twix,1.62,True,FlamingCheetos,4.71,True,MDMMT_0002,319.755,146659.315,146,146339.56
2018-01-26 15:56:04,0.82,4000,True,u,56.81,FlamingCheetos,FlamingCheetos,4.71,True,Goldfish,5.53,True,MDMMT_0002,56.81,147225.15,147,147168.34
2018-01-26 15:56:04,-0.86,4000,True,i,51.76,Nutterbutter,KitKat_small,4.54,True,Nutterbutter,3.68,True,MDMMT_0002,51.76,147803.18,148,147751.42
2018-01-26 15:56:04,-0.2,4000,True,i,109.41,Ghiradelli_milk_Almonds,TootsieRolls,8.98,True,Ghiradelli_milk_Almonds,8.78,True,MDMMT_0002,109.41,148420.01,149,148310.6
2018-01-26 15:56:04,3.29,4000,True,u,107.39,MrsFields,MrsFields,0.89,True,SourSkittles,4.18,True,MDMMT_0002,107.39,149033.95,150,148926.56
2018-01-26 15:56:04,0.99,4000,True,u,143.535,FigNewton_small,FigNewton_small,3.1,True,Snickers,4.09,True,MDMMT_0002,143.535,149686.055,151,149542.52
2018-01-26 15:56:04,-0.86,4000,True,i,430.08,Cheetos,AnimalCrackers,1.98,True,Cheetos,1.12,True,MDMMT_0002,430.08,150625.055,152,150194.975
2018-01-26 15:56:04,-0.65,4000,True,i,138.615,BabyRuth,PeanutMMs,7.43,True,BabyRuth,6.78,True,MDMMT_0002,138.615,151272.39,153,151133.775
2018-01-26 15:56:04,-0.26,4000,True,i,718.63,Jollyranchergreen,Lollipopred,2.93,True,Jollyranchergreen,2.67,True,MDMMT_0002,718.63,152499.76,154,151781.13
2018-01-26 15:56:04,1.35,4000,True,u,9.03,PeanutMMs,PeanutMMs,7.43,True,Ghiradelli_milk_Almonds,8.78,True,MDMMT_0002,9.03,153016.89,155,153007.86
2018-01-26 15:56:04,1.45,4000,True,i,2600.09,Skittles,MrsFields,0.89,True,Skittles,2.34,True,MDMMT_0002,2600.09,156124.76,156,153524.67
2018-01-26 15:56:04,-1.37,4000,True,u,229.825,Lollipopred,Lollipopred,2.93,True,Fritos,1.56,True,MDMMT_0002,229.825,156862.775,157,156632.95
2018-01-26 15:56:04,-0.36,4000,True,u,289.61,Almondjoy,Almondjoy,0.37,True,Granolabar,0.01,True,MDMMT_0002,289.61,157655.825,158,157366.215
2018-01-26 15:56:04,0.14,4000,True,u,32.195,FlamingCheetos,FlamingCheetos,4.71,True,Riprolls,4.85,True,MDMMT_0002,32.195,158192.495,159,158160.3
2018-01-26 15:56:04,-0.17,4000,True,u,104.24,Fritos,Fritos,1.56,True,ChipsAhoy_small,1.39,True,MDMMT_0002,104.24,158843.705,160,158739.465
2018-01-26 15:56:04,0.0,4000,True,u,797.19,starburst,starburst,5.01,True,RitzBitz2,5.01,True,MDMMT_0002,797.19,160149.605,161,159352.415
2018-01-26 15:56:04,1.19,4000,True,u,2634.32,Riprolls,Riprolls,4.85,True,Chocolate_mm,6.04,True,MDMMT_0002,2634.32,163290.575,162,160656.255
2018-01-26 15:56:04,0.5,4000,True,i,940.325,ChipsAhoy_small,MrsFields,0.89,True,ChipsAhoy_small,1.39,True,MDMMT_0002,940.325,164739.35,163,163799.025
2018-01-26 15:56:04,1.91,4000,True,i,75.78,Keeblerfudgestripes,FamousAmos_small,4.34,True,Keeblerfudgestripes,6.25,True,MDMMT_0002,75.78,165324.17,164,165248.39
2018-01-26 15:56:04,-1.47,4000,True,u,732.85,TeddyGrahamschocolate,TeddyGrahamschocolate,1.48,True,Granolabar,0.01,True,MDMMT_0002,732.85,166560.425,165,165827.575
2018-01-26 15:56:04,-0.91,4000,True,u,451.55,Milano,Milano,0.92,True,Granolabar,0.01,True,MDMMT_0002,451.55,167521.235,166,167069.685
2018-01-26 15:56:04,-3.46,4000,True,u,260.405,100grand_small,100grand_small,8.17,True,FlamingCheetos,4.71,True,MDMMT_0002,260.405,168289.535,167,168029.13
2018-01-26 15:56:04,1.19,4000,True,u,1484.0,Almondjoy,Almondjoy,0.37,True,Fritos,1.56,True,MDMMT_0002,1484.0,170282.135,168,168798.135
2018-01-26 15:56:04,0.06,4000,True,i,467.295,Crunch,AnimalCrackers,1.98,True,Crunch,2.04,True,MDMMT_0002,467.295,171255.2,169,170787.905
2018-01-26 15:56:04,3.14,4000,True,u,56.825,Jollyranchergreen,Jollyranchergreen,2.67,True,PringlesRed,5.81,True,MDMMT_0002,56.825,171818.885,170,171762.06
2018-01-26 15:56:04,-1.08,4000,True,i,254.525,Funyuns_small,PringlesRed,5.81,True,Funyuns_small,4.73,True,MDMMT_0002,254.525,172587.925,171,172333.4
2018-01-26 15:56:04,-0.21,4000,True,i,295.955,Nutterbutter,Cheese_PeanutButterCrackers,3.89,True,Nutterbutter,3.68,True,MDMMT_0002,295.955,173392.99,172,173097.035
2018-01-26 15:56:04,-0.12,4000,False,NaN,4005.26,NaN,Riprolls,4.85,True,Funyuns_small,4.73,True,MDMMT_0002,4005.26,177904.02,173,173898.76
2018-01-26 15:56:04,3.16,4000,False,NaN,4002.53,NaN,RitzBitz2,5.01,True,100grand_small,8.17,True,MDMMT_0002,4002.53,182411.26,174,178408.73
2018-01-26 15:56:04,1.73,4000,True,u,662.62,100grand_small,100grand_small,8.17,True,Dots_one,9.9,True,MDMMT_0002,662.62,183580.37,175,182917.75
2018-01-26 15:56:04,3.8,4000,True,i,81.135,3Musketeers,Almondjoy,0.37,True,3Musketeers,4.17,True,MDMMT_0002,81.135,184171.16,176,184090.025
2018-01-26 15:56:04,-0.56,4000,True,u,334.25,Cheezits,Cheezits,6.81,True,Keeblerfudgestripes,6.25,True,MDMMT_0002,334.25,185011.425,177,184677.175
2018-01-26 15:56:04,-1.33,4000,True,i,223.54,Hersheykisses,Hersheymilk_several,3.31,True,Hersheykisses,1.98,True,MDMMT_0002,223.54,185740.33,178,185516.79
2018-01-26 15:56:04,-3.14,4000,True,i,2484.885,Fritos,Whatchamacallit,4.7,True,Fritos,1.56,True,MDMMT_0002,2484.885,188734.265,179,186249.38
2018-01-26 15:56:04,-0.81,4000,True,u,360.04,TootsieRolls,TootsieRolls,8.98,True,100grand_small,8.17,True,MDMMT_0002,360.04,189602.225,180,189242.185
2018-01-26 15:56:04,-2.67,4000,True,i,79.98,Skittles,starburst,5.01,True,Skittles,2.34,True,MDMMT_0002,79.98,190191.145,181,190111.165
2018-01-26 15:56:04,-0.01,4000,True,u,452.265,KitKat_small,KitKat_small,4.54,True,Oreos,4.53,True,MDMMT_0002,452.265,191149.075,182,190696.81
2018-01-26 15:56:04,-1.56,4000,True,u,52.885,Laffytaffyred_one,Laffytaffyred_one,3.9,True,MilkyWay,2.34,True,MDMMT_0002,52.885,191711.02,183,191658.135
2018-01-26 15:56:04,3.36,4000,True,u,1401.465,Milkduds,Milkduds,2.43,True,Laysclassic,5.79,True,MDMMT_0002,1401.465,193622.92,184,192221.455
2018-01-26 15:56:04,0.44,4000,True,i,215.685,Sourpatch,Hersheymilk_several,3.31,True,Sourpatch,3.75,True,MDMMT_0002,215.685,194346.885,185,194131.2
2018-01-26 15:56:04,0.16,4000,True,u,241.17,SourSkittles,SourSkittles,4.18,True,FamousAmos_small,4.34,True,MDMMT_0002,241.17,195096.895,186,194855.725
2018-01-26 15:56:04,0.0,4000,True,i,533.875,CheesyDoritos,FigNewton_small,3.1,True,CheesyDoritos,3.1,True,MDMMT_0002,533.875,196139.805,187,195605.93
2018-01-26 15:56:04,0.74,4000,True,u,354.465,PeanutMMs,PeanutMMs,7.43,True,100grand_small,8.17,True,MDMMT_0002,354.465,196999.895,188,196645.43
2018-01-26 15:56:04,-2.02,4000,True,i,193.87,Riprolls,WheatThins,6.87,True,Riprolls,4.85,True,MDMMT_0002,193.87,197698.78,189,197504.91
2018-01-26 15:56:04,0.36,4000,True,u,378.52,Twix,Twix,1.62,True,Hersheykisses,1.98,True,MDMMT_0002,378.52,198584.695,190,198206.175
2018-01-26 15:56:04,3.19,4000,True,i,284.99,TootsieRolls,Laysclassic,5.79,True,TootsieRolls,8.98,True,MDMMT_0002,284.99,199378.66,191,199093.67
2018-01-26 15:56:04,-0.42,4000,True,i,367.44,Fritos,AnimalCrackers,1.98,True,Fritos,1.56,True,MDMMT_0002,367.44,200254.745,192,199887.305
2018-01-26 15:56:04,0.7,4000,True,u,246.56,Slimjim,Slimjim,2.4,True,FigNewton_small,3.1,True,MDMMT_0002,246.56,201005.425,193,200758.865
2018-01-26 15:56:04,0.06,4000,True,i,377.57,CheesyDoritos,Doritosranch,3.04,True,CheesyDoritos,3.1,True,MDMMT_0002,377.57,201885.375,194,201507.805
2018-01-26 15:56:04,-1.07,4000,True,u,21.48,3Musketeers,3Musketeers,4.17,True,RiceKrispyTreat_small,3.1,True,MDMMT_0002,21.48,202412.17,195,202390.69
2018-01-26 15:56:04,0.27,4000,True,u,154.22,Cheetos,Cheetos,1.12,True,ChipsAhoy_small,1.39,True,MDMMT_0002,154.22,203120.345,196,202966.125
2018-01-26 15:56:04,-0.65,4000,True,u,428.955,Crunch,Crunch,2.04,True,ChipsAhoy_small,1.39,True,MDMMT_0002,428.955,204054.455,197,203625.5
2018-01-26 15:56:04,-0.06,4000,True,i,164.155,Hersheykisses,Crunch,2.04,True,Hersheykisses,1.98,True,MDMMT_0002,164.155,204724.47,198,204560.315
2018-01-26 15:56:04,1.04,4000,True,i,188.185,Milkduds,ChipsAhoy_small,1.39,True,Milkduds,2.43,True,MDMMT_0002,188.185,205421.345,199,205233.16
2018-01-26 15:56:04,0.03,4000,True,u,2080.175,MrsFields,MrsFields,0.89,True,Milano,0.92,True,MDMMT_0002,2080.175,208006.33,200,205926.155
2018-01-26 15:56:04,3.17,4000,True,i,3982.495,Toberlorone,TeddyGrahamschocolate,1.48,True,Toberlorone,4.65,True,MDMMT_0002,3982.495,212496.245,201,208513.75
2018-01-26 15:56:04,-5.4,4000,True,u,540.435,PopTartsStrawberry,PopTartsStrawberry,9.15,True,Sourpatch,3.75,True,MDMMT_0002,540.435,213545.035,202,213004.6
2018-01-26 15:56:04,-0.06,4000,True,i,250.16,Skittles,Slimjim,2.4,True,Skittles,2.34,True,MDMMT_0002,250.16,214304.05,203,214053.89
2018-01-26 15:56:04,5.03,4000,True,u,169.31,Ruffles,Ruffles,3.14,True,100grand_small,8.17,True,MDMMT_0002,169.31,214978.015,204,214808.705
2018-01-26 15:56:04,0.66,4000,True,u,758.14,Skittles,Skittles,2.34,True,Butterfinger,3.0,True,MDMMT_0002,758.14,216245.15,205,215487.01
2018-01-26 15:56:04,0.09,4000,True,i,494.93,WheatThins,BabyRuth,6.78,True,WheatThins,6.87,True,MDMMT_0002,494.93,217248.875,206,216753.945
2018-01-26 15:56:04,-0.28,4000,True,u,24.2,PringlesRed,PringlesRed,5.81,True,Goldfish,5.53,True,MDMMT_0002,24.2,217776.67,207,217752.47
2018-01-26 15:56:04,-0.75,4000,True,u,1304.04,Cheetos,Cheetos,1.12,True,Almondjoy,0.37,True,MDMMT_0002,1304.04,219616.655,208,218312.615
2018-01-26 15:56:04,0.42,4000,True,u,581.3,Twix,Twix,1.62,True,Crunch,2.04,True,MDMMT_0002,581.3,220705.85,209,220124.55
