delta,maxTrialTime,receivedResponse,rsp,rt,selected,stimulus1,stimulus1Bid,stimulus1Loaded,stimulus2,stimulus2Bid,stimulus2Loaded,subjectID,trialDuration,trialEndTime,trialN,trialStartTime
0.0,4000,True,u,347.995,RitzBitz2,RitzBitz2,1.8,True,Skittles,1.8,True,TEST00003,347.995,1125.5,0,777.505
-0.53,4000,True,u,63.135,Ghiradelli_milk,Ghiradelli_milk,2.08,True,Cheezits,1.55,True,TEST00003,63.135,1697.31,1,1634.175
0.2,4000,True,u,18.09,Ghiradelli_milk_Almonds,Ghiradelli_milk_Almonds,2.12,True,Cheetos,2.32,True,TEST00003,18.09,2225.31,2,2207.22
0.43,4000,True,i,107.31,Ghiradelli_milk,Butterfinger,1.65,True,Ghiradelli_milk,2.08,True,TEST00003,107.31,2845.465,3,2738.155
-0.28,4000,True,i,33.92,MilkyWay,Riprolls,1.04,True,MilkyWay,0.76,True,TEST00003,33.92,3385.41,4,3351.49
0.05,4000,True,i,27.135,Cheetos,Sourpatch,2.27,True,Cheetos,2.32,True,TEST00003,27.135,3953.375,5,3926.24
0.05,4000,True,i,24.075,ChipsAhoy_small,FamousAmos_small,1.47,True,ChipsAhoy_small,1.52,True,TEST00003,24.075,4509.23,6,4485.155
0.34,4000,True,i,66.765,FlamingCheetos,Slimjim,2.42,True,FlamingCheetos,2.76,True,TEST00003,66.765,5081.45,7,5014.685
-0.55,4000,True,i,26.87,Keeblerfudgestripes,ChipsAhoy_small,1.52,True,Keeblerfudgestripes,0.97,True,TEST00003,26.87,5617.205,8,5590.335
-0.07,4000,True,i,27.705,Chocolate_mm,Funyuns_small,1.63,True,Chocolate_mm,1.56,True,TEST00003,27.705,6153.135,9,6125.43
0.06,4000,True,i,112.775,Skittles,MrGoodbar,1.74,True,Skittles,1.8,True,TEST00003,112.775,6771.335,10,6658.56
-0.06,4000,True,i,59.77,Toberlorone,PopTartsStrawberry,1.88,True,Toberlorone,1.82,True,TEST00003,59.77,7339.24,11,7279.47
0.03,4000,True,i,367.195,MrsFields,TeddyGrahamschocolate,1.29,True,MrsFields,1.32,True,TEST00003,367.195,8210.44,12,7843.245
0.0,4000,True,u,12.33,Laysclassic,Laysclassic,1.55,False,Milano,1.55,False,TEST00003,12.33,8730.02,13,8717.69
0.27,4000,True,i,136.0,PringlesRed,Goldfish,2.36,True,PringlesRed,2.63,True,TEST00003,136.0,9374.17,14,9238.17
0.21,4000,True,u,115.115,MilkyWay,MilkyWay,0.76,True,Keeblerfudgestripes,0.97,True,TEST00003,115.115,9998.18,15,9883.065
0.05,4000,True,i,11.55,100grand_small,starburst,1.59,True,100grand_small,1.64,True,TEST00003,11.55,10517.935,16,10506.385
-0.02,4000,True,u,9.35,Hersheykisses,Hersheykisses,1.82,False,Skittles,1.8,True,TEST00003,9.35,11093.905,17,11084.555
-0.76,4000,True,u,76.575,Cheetos,Cheetos,2.32,True,Fritos,1.56,True,TEST00003,76.575,11678.085,18,11601.51
0.36,4000,True,u,76.21,100grand_small,100grand_small,1.64,True,Oreos,2.0,True,TEST00003,76.21,12262.085,19,12185.875
0.58,4000,True,u,21.9,Keeblerfudgestripes,Keeblerfudgestripes,0.97,True,Dots_one,1.55,True,TEST00003,21.9,12789.9,20,12768.0
0.94,4000,True,u,292.71,AnimalCrackers,AnimalCrackers,1.82,True,FlamingCheetos,2.76,True,TEST00003,292.71,13591.42,21,13298.71
0.14,4000,True,i,120.665,Lollipopred,starburst,1.59,True,Lollipopred,1.73,True,TEST00003,120.665,14217.995,22,14097.33
0.02,4000,True,i,116.56,Milano,WheatThins,1.53,True,Milano,1.55,True,TEST00003,116.56,14837.955,23,14721.395
-0.61,4000,True,i,403.22,Jollyranchergreen,Goldfish,2.36,True,Jollyranchergreen,1.75,True,TEST00003,403.22,15745.89,24,15342.67
-1.35,4000,True,i,165.135,Twix,ChipsAhoy_small,1.52,True,Twix,0.17,True,TEST00003,165.135,16417.86,25,16252.725
0.15,4000,True,i,29.78,starburst,Nutterbutter,1.44,True,starburst,1.59,True,TEST00003,29.78,16953.815,26,16924.035
-0.07,4000,True,i,48.51,Funyuns_small,BabyRuth,1.7,True,Funyuns_small,1.63,True,TEST00003,48.51,17509.775,27,17461.265
-0.3,4000,True,i,55.695,ChipsAhoy_small,Toberlorone,1.82,True,ChipsAhoy_small,1.52,True,TEST00003,55.695,18073.745,28,18018.05
0.15,4000,True,i,9.585,Jollyranchergreen,TootsieRolls,1.6,True,Jollyranchergreen,1.75,True,TEST00003,9.585,18591.645,29,18582.06
0.0,4000,True,u,25.54,PayDay,PayDay,1.73,True,Lollipopred,1.73,True,TEST00003,25.54,19179.535,30,19153.995
-0.05,4000,True,i,22.29,Goldfish,RiceKrispyTreat_small,2.41,True,Goldfish,2.36,True,TEST00003,22.29,19757.525,31,19735.235
-0.05,4000,True,i,45.83,Snickers,Butterfinger,1.65,True,Snickers,1.6,True,TEST00003,45.83,20313.645,32,20267.815
-0.03,4000,True,i,46.98,Granolabar,Butterfinger,1.65,True,Granolabar,1.62,True,TEST00003,46.98,20869.63,33,20822.65
0.26,4000,True,i,64.265,CheesyDoritos,Twix,0.17,True,CheesyDoritos,0.43,True,TEST00003,64.265,21457.725,34,21393.46
-0.06,4000,True,i,78.785,RitzBitz2,KitKat_small,1.86,True,RitzBitz2,1.8,True,TEST00003,78.785,22046.62,35,21967.835
0.51,4000,True,i,70.455,Laysclassic,Riprolls,1.04,True,Laysclassic,1.55,True,TEST00003,70.455,22735.365,36,22664.91
-0.01,4000,True,i,25.32,WheatThins,Milkduds,1.54,True,WheatThins,1.53,True,TEST00003,25.32,23268.495,37,23243.175
-1.13,4000,True,i,135.45,Snickers,Reeses,2.73,True,Snickers,1.6,True,TEST00003,135.45,23911.555,38,23776.105
0.02,4000,True,u,104.51,Milkduds,Milkduds,1.54,True,Fritos,1.56,True,TEST00003,104.51,24522.535,39,24418.025
-0.06,4000,True,i,75.29,100grand_small,BabyRuth,1.7,True,100grand_small,1.64,True,TEST00003,75.29,25103.475,40,25028.185
0.0,4000,True,i,142.395,Snickers,TootsieRolls,1.6,True,Snickers,1.6,True,TEST00003,142.395,25751.44,41,25609.045
0.58,4000,True,u,231.275,Twix,Twix,0.17,True,Almondjoy,0.75,True,TEST00003,231.275,26491.445,42,26260.17
0.04,4000,True,u,291.685,AnimalCrackers,AnimalCrackers,1.82,True,KitKat_small,1.86,True,TEST00003,291.685,27289.33,43,26997.645
-0.05,4000,True,i,9.205,Laffytaffyred_one,Dots_one,1.55,True,Laffytaffyred_one,1.5,False,TEST00003,9.205,27805.225,44,27796.02
-0.17,4000,True,u,69.66,TeddyGrahamschocolate,TeddyGrahamschocolate,1.29,True,SourSkittles,1.12,True,TEST00003,69.66,28381.29,45,28311.63
0.01,4000,True,u,114.435,Laysclassic,Laysclassic,1.55,True,Fritos,1.56,True,TEST00003,114.435,29004.285,46,28889.85
0.01,4000,True,i,51.995,Chocolate_mm,Dots_one,1.55,True,Chocolate_mm,1.56,True,TEST00003,51.995,29560.13,47,29508.135
-0.01,4000,True,i,28.5,RitzBitz2,Cheese_PeanutButterCrackers,1.81,True,RitzBitz2,1.8,True,TEST00003,28.5,30123.215,48,30094.715
-0.79,4000,True,i,33.45,MilkyWay,Cheezits,1.55,True,MilkyWay,0.76,True,TEST00003,33.45,30707.655,49,30674.205
-0.02,4000,True,u,307.18,Hersheymilk_several,Hersheymilk_several,1.62,True,Snickers,1.6,True,TEST00003,307.18,31566.225,50,31259.045
0.19,4000,True,i,169.305,Sourpatch,Ghiradelli_milk,2.08,True,Sourpatch,2.27,True,TEST00003,169.305,32241.09,51,32071.785
-0.01,4000,True,u,162.9,Cheezits,Cheezits,1.55,True,Milkduds,1.54,True,TEST00003,162.9,32909.155,52,32746.255
-0.1,4000,True,u,50.115,TootsieRolls,TootsieRolls,1.6,True,Laffytaffyred_one,1.5,True,TEST00003,50.115,33468.135,53,33418.02
-0.34,4000,True,i,126.12,Milkduds,PopTartsStrawberry,1.88,True,Milkduds,1.54,True,TEST00003,126.12,34103.11,54,33976.99
0.03,4000,True,i,119.62,Laysclassic,ChipsAhoy_small,1.52,True,Laysclassic,1.55,True,TEST00003,119.62,34732.01,55,34612.39
0.15,4000,True,i,3.01,SourSkittles,Keeblerfudgestripes,0.97,True,SourSkittles,1.12,True,TEST00003,3.01,35243.925,56,35240.915
-0.06,4000,True,i,55.445,Ruffles,Hersheymilk_several,1.62,True,Ruffles,1.56,True,TEST00003,55.445,35807.965,57,35752.52
0.15,4000,True,u,169.475,Crunch,Crunch,1.58,True,PayDay,1.73,True,TEST00003,169.475,36507.925,58,36338.45
0.48,4000,True,i,55.15,Skittles,MrsFields,1.32,True,Skittles,1.8,True,TEST00003,55.15,37071.99,59,37016.84
0.21,4000,True,i,178.865,PringlesRed,Slimjim,2.42,True,PringlesRed,2.63,True,TEST00003,178.865,37759.905,60,37581.04
-1.45,4000,True,i,135.02,Twix,Hersheymilk_several,1.62,True,Twix,0.17,True,TEST00003,135.02,38403.785,61,38268.765
-0.71,4000,True,i,250.755,Chocolate_mm,Sourpatch,2.27,True,Chocolate_mm,1.56,True,TEST00003,250.755,39159.905,62,38909.15
0.02,4000,True,i,142.985,ChipsAhoy_small,Laffytaffyred_one,1.5,True,ChipsAhoy_small,1.52,True,TEST00003,142.985,39811.85,63,39668.865
-0.03,4000,True,i,146.37,WheatThins,Chocolate_mm,1.56,True,WheatThins,1.53,True,TEST00003,146.37,40463.83,64,40317.46
0.16,4000,True,i,148.205,TeddyGrahamschocolate,Doritosranch,1.13,True,TeddyGrahamschocolate,1.29,True,TEST00003,148.205,41119.785,65,40971.58
-0.28,4000,True,i,100.67,TeddyGrahamschocolate,PeanutMMs,1.57,True,TeddyGrahamschocolate,1.29,True,TEST00003,100.67,41727.7,66,41627.03
-0.35,4000,True,i,16.485,FamousAmos_small,Hersheykisses,1.82,True,FamousAmos_small,1.47,True,TEST00003,16.485,42251.745,67,42235.26
-0.62,4000,True,i,355.48,Skittles,Slimjim,2.42,True,Skittles,1.8,True,TEST00003,355.48,43118.625,68,42763.145
0.45,4000,True,u,151.195,Milano,Milano,1.55,True,Oreos,2.0,True,TEST00003,151.195,43778.61,69,43627.415
0.16,4000,True,i,307.1,FigNewton_small,Oreos,2.0,True,FigNewton_small,2.16,True,TEST00003,307.1,44594.565,70,44287.465
1.04,4000,True,i,107.475,Milkduds,Whatchamacallit,0.5,True,Milkduds,1.54,True,TEST00003,107.475,45206.54,71,45099.065
0.32,4000,True,i,75.065,Almondjoy,CheesyDoritos,0.43,True,Almondjoy,0.75,True,TEST00003,75.065,45790.38,72,45715.315
1.1,4000,True,i,168.365,WheatThins,CheesyDoritos,0.43,True,WheatThins,1.53,True,TEST00003,168.365,46470.485,73,46302.12
-0.89,4000,True,i,38.925,Almondjoy,100grand_small,1.64,True,Almondjoy,0.75,True,TEST00003,38.925,47018.47,74,46979.545
0.63,4000,True,u,239.415,Whatchamacallit,Whatchamacallit,0.5,True,Doritosranch,1.13,True,TEST00003,239.415,47766.5,75,47527.085
0.0,4000,True,i,11.59,Chocolate_mm,Fritos,1.56,True,Chocolate_mm,1.56,True,TEST00003,11.59,48282.435,76,48270.845
-0.58,4000,True,i,274.645,MrGoodbar,Cheetos,2.32,True,MrGoodbar,1.74,True,TEST00003,274.645,49062.23,77,48787.585
0.06,4000,True,i,218.52,PopTartsStrawberry,AnimalCrackers,1.82,True,PopTartsStrawberry,1.88,True,TEST00003,218.52,49786.22,78,49567.7
-0.01,4000,True,i,262.575,Crunch,starburst,1.59,True,Crunch,1.58,True,TEST00003,262.575,50554.405,79,50291.83
0.61,4000,True,i,246.97,FigNewton_small,Laysclassic,1.55,True,FigNewton_small,2.16,True,TEST00003,246.97,51306.3,80,51059.33
-1.04,4000,True,u,307.095,PringlesRed,PringlesRed,2.63,True,starburst,1.59,True,TEST00003,307.095,52122.31,81,51815.215
-0.57,4000,True,u,247.675,Jollyranchergreen,Jollyranchergreen,1.75,True,3Musketeers,1.18,True,TEST00003,247.675,52878.275,82,52630.6
0.43,4000,True,u,81.375,Almondjoy,Almondjoy,0.75,True,3Musketeers,1.18,True,TEST00003,81.375,53463.885,83,53382.51
0.51,4000,True,i,202.35,RitzBitz2,TeddyGrahamschocolate,1.29,True,RitzBitz2,1.8,True,TEST00003,202.35,54170.23,84,53967.88
0.09,4000,True,i,231.51,Butterfinger,Ruffles,1.56,True,Butterfinger,1.65,True,TEST00003,231.51,54905.84,85,54674.33
-0.33,4000,True,i,226.56,WheatThins,KitKat_small,1.86,True,WheatThins,1.53,True,TEST00003,226.56,55640.095,86,55413.535
-1.13,4000,True,u,89.38,Funyuns_small,Funyuns_small,1.63,True,Whatchamacallit,0.5,True,TEST00003,89.38,56238.09,87,56148.71
-0.07,4000,True,i,14.755,Dots_one,Hersheymilk_several,1.62,True,Dots_one,1.55,True,TEST00003,14.755,56759.875,88,56745.12
0.32,4000,True,i,604.87,Reeses,RiceKrispyTreat_small,2.41,True,Reeses,2.73,True,TEST00003,604.87,57923.99,89,57319.12
0.36,4000,True,i,162.195,FigNewton_small,Skittles,1.8,True,FigNewton_small,2.16,True,TEST00003,162.195,58594.82,90,58432.625
-0.42,4000,True,i,519.655,SourSkittles,Milkduds,1.54,True,SourSkittles,1.12,True,TEST00003,519.655,59620.03,91,59100.375
0.12,4000,True,i,95.73,Ghiradelli_milk_Almonds,Oreos,2.0,True,Ghiradelli_milk_Almonds,2.12,True,TEST00003,95.73,60222.9,92,60127.17
0.02,4000,True,i,339.895,TootsieRolls,Crunch,1.58,True,TootsieRolls,1.6,True,TEST00003,339.895,61067.72,93,60727.825
-0.56,4000,True,i,104.455,KitKat_small,Slimjim,2.42,True,KitKat_small,1.86,True,TEST00003,104.455,61679.835,94,61575.38
-0.09,4000,True,i,187.735,Cheetos,RiceKrispyTreat_small,2.41,True,Cheetos,2.32,True,TEST00003,187.735,62375.61,95,62187.875
-0.08,4000,True,i,139.195,MrGoodbar,AnimalCrackers,1.82,True,MrGoodbar,1.74,True,TEST00003,139.195,63023.75,96,62884.555
-0.36,4000,True,i,195.09,Oreos,Goldfish,2.36,True,Oreos,2.0,True,TEST00003,195.09,63727.635,97,63532.545
0.0,4000,True,u,210.435,AnimalCrackers,AnimalCrackers,1.82,True,Toberlorone,1.82,True,TEST00003,210.435,64446.755,98,64236.32
0.74,4000,True,u,81.62,MilkyWay,MilkyWay,0.76,True,Laffytaffyred_one,1.5,True,TEST00003,81.62,65032.315,99,64950.695
-0.1,4000,True,u,185.935,BabyRuth,BabyRuth,1.7,True,TootsieRolls,1.6,True,TEST00003,185.935,65722.655,100,65536.72
-0.02,4000,True,u,81.405,Granolabar,Granolabar,1.62,True,TootsieRolls,1.6,True,TEST00003,81.405,66308.295,101,66226.89
-0.02,4000,True,u,85.645,Crunch,Crunch,1.58,True,Ruffles,1.56,True,TEST00003,85.645,66902.645,102,66817.0
-0.08,4000,True,u,149.265,Ghiradelli_milk,Ghiradelli_milk,2.08,True,Oreos,2.0,True,TEST00003,149.265,67558.615,103,67409.35
-0.8,4000,True,i,51.81,Almondjoy,Milano,1.55,True,Almondjoy,0.75,True,TEST00003,51.81,68114.6,104,68062.79
-0.84,4000,True,i,166.05,PeanutMMs,RiceKrispyTreat_small,2.41,True,PeanutMMs,1.57,True,TEST00003,166.05,68811.555,105,68645.505
-0.68,4000,True,u,224.32,FlamingCheetos,FlamingCheetos,2.76,True,Ghiradelli_milk,2.08,True,TEST00003,224.32,69540.395,106,69316.075
-0.08,4000,True,u,233.705,PopTartsStrawberry,PopTartsStrawberry,1.88,True,Skittles,1.8,True,TEST00003,233.705,70279.445,107,70045.74
0.75,4000,True,u,115.115,PopTartsStrawberry,PopTartsStrawberry,1.88,True,PringlesRed,2.63,True,TEST00003,115.115,70903.47,108,70788.355
0.47,4000,True,u,169.51,FigNewton_small,FigNewton_small,2.16,True,PringlesRed,2.63,True,TEST00003,169.51,71577.425,109,71407.915
0.11,4000,True,i,20.985,Milano,Nutterbutter,1.44,True,Milano,1.55,True,TEST00003,20.985,72107.31,110,72086.325
-0.02,4000,True,u,488.875,100grand_small,100grand_small,1.64,True,Hersheymilk_several,1.62,True,TEST00003,488.875,73104.44,111,72615.565
0.73,4000,True,i,91.315,Reeses,Oreos,2.0,True,Reeses,2.73,True,TEST00003,91.315,73699.345,112,73608.03
-0.07,4000,True,i,84.885,Lollipopred,RitzBitz2,1.8,True,Lollipopred,1.73,True,TEST00003,84.885,74293.24,113,74208.355
0.54,4000,True,i,380.04,Sourpatch,Lollipopred,1.73,True,Sourpatch,2.27,True,TEST00003,380.04,75182.225,114,74802.185
-0.09,4000,True,i,183.505,Lollipopred,Hersheykisses,1.82,True,Lollipopred,1.73,True,TEST00003,183.505,75871.065,115,75687.56
-0.02,4000,True,u,51.545,Jollyranchergreen,Jollyranchergreen,1.75,True,Lollipopred,1.73,True,TEST00003,51.545,76429.01,116,76377.465
-0.69,4000,True,u,173.645,SourSkittles,SourSkittles,1.12,True,CheesyDoritos,0.43,True,TEST00003,173.645,77110.2,117,76936.555
0.07,4000,True,u,42.015,Jollyranchergreen,Jollyranchergreen,1.75,True,Toberlorone,1.82,True,TEST00003,42.015,77656.17,118,77614.155
-0.33,4000,True,u,178.495,RiceKrispyTreat_small,RiceKrispyTreat_small,2.41,True,Ghiradelli_milk,2.08,True,TEST00003,178.495,78338.11,119,78159.615
0.32,4000,True,u,0.979999999996,RitzBitz2,RitzBitz2,1.8,True,Ghiradelli_milk_Almonds,2.12,True,TEST00003,0.979999999996,78848.005,120,78847.025
-0.89,4000,False,NaN,4005.365,NaN,Butterfinger,1.65,True,MilkyWay,0.76,True,TEST00003,4005.365,83362.32,121,79356.955
0.0,4000,True,u,2663.885,Hersheymilk_several,Hersheymilk_several,1.62,True,Granolabar,1.62,True,TEST00003,2663.885,86532.305,122,83868.42
0.03,4000,True,i,73.505,FamousAmos_small,Nutterbutter,1.44,True,FamousAmos_small,1.47,True,TEST00003,73.505,87115.11,123,87041.605
-0.01,4000,True,u,5.145,Chocolate_mm,Chocolate_mm,1.56,True,Cheezits,1.55,True,TEST00003,5.145,87622.87,124,87617.725
-0.44,4000,True,i,24.375,SourSkittles,Chocolate_mm,1.56,True,SourSkittles,1.12,True,TEST00003,24.375,88154.975,125,88130.6
0.06,4000,True,i,104.845,WheatThins,FamousAmos_small,1.47,True,WheatThins,1.53,True,TEST00003,104.845,88817.935,126,88713.09
-0.46,4000,True,u,75.755,Sourpatch,Sourpatch,2.27,True,Cheese_PeanutButterCrackers,1.81,True,TEST00003,75.755,89396.975,127,89321.22
0.08,4000,True,i,64.855,Cheese_PeanutButterCrackers,PayDay,1.73,True,Cheese_PeanutButterCrackers,1.81,True,TEST00003,64.855,89964.89,128,89900.035
-0.2,4000,True,u,69.515,Toberlorone,Toberlorone,1.82,True,Hersheymilk_several,1.62,True,TEST00003,69.515,90540.96,129,90471.445
0.08,4000,True,i,51.7,ChipsAhoy_small,Nutterbutter,1.44,True,ChipsAhoy_small,1.52,True,TEST00003,51.7,91095.73,130,91044.03
0.05,4000,True,u,66.09,Doritosranch,Doritosranch,1.13,True,3Musketeers,1.18,True,TEST00003,66.09,91676.7,131,91610.61
-0.05,4000,True,i,16.895,PeanutMMs,Granolabar,1.62,True,PeanutMMs,1.57,True,TEST00003,16.895,92212.855,132,92195.96
-0.57,4000,True,u,64.655,Ghiradelli_milk_Almonds,Ghiradelli_milk_Almonds,2.12,True,Dots_one,1.55,True,TEST00003,64.655,92782.89,133,92718.235
-0.24,4000,True,i,47.025,Granolabar,KitKat_small,1.86,True,Granolabar,1.62,True,TEST00003,47.025,93333.8,134,93286.775
-0.13,4000,True,u,37.415,BabyRuth,BabyRuth,1.7,True,PeanutMMs,1.57,True,TEST00003,37.415,93888.8,135,93851.385
-0.14,4000,True,u,117.935,3Musketeers,3Musketeers,1.18,True,Riprolls,1.04,True,TEST00003,117.935,94547.705,136,94429.77
0.43,4000,True,u,114.065,Doritosranch,Doritosranch,1.13,True,Fritos,1.56,True,TEST00003,114.065,95166.64,137,95052.575
0.33,4000,True,u,110.59,CheesyDoritos,CheesyDoritos,0.43,True,MilkyWay,0.76,True,TEST00003,110.59,95785.555,138,95674.965
-0.04,4000,True,u,147.485,FigNewton_small,FigNewton_small,2.16,True,Ghiradelli_milk_Almonds,2.12,True,TEST00003,147.485,96436.64,139,96289.155
0.43,4000,True,u,137.58,PayDay,PayDay,1.73,True,FigNewton_small,2.16,True,TEST00003,137.58,97077.555,140,96939.975
-1.19,4000,True,u,120.48,Granolabar,Granolabar,1.62,True,CheesyDoritos,0.43,True,TEST00003,120.48,97702.645,141,97582.165
-0.8,4000,True,i,6.10000000001,Ruffles,Goldfish,2.36,True,Ruffles,1.56,True,TEST00003,6.10000000001,98217.425,142,98211.325
-0.44,4000,True,u,124.23,FlamingCheetos,FlamingCheetos,2.76,True,Cheetos,2.32,True,TEST00003,124.23,98845.615,143,98721.385
-0.09,4000,True,i,52.82,Sourpatch,Goldfish,2.36,True,Sourpatch,2.27,True,TEST00003,52.82,99409.485,144,99356.665
-0.04,4000,True,u,82.17,KitKat_small,KitKat_small,1.86,True,Hersheykisses,1.82,True,TEST00003,82.17,100016.33,145,99934.16
-0.94,4000,True,u,165.325,Nutterbutter,Nutterbutter,1.44,True,Whatchamacallit,0.5,True,TEST00003,165.325,100686.37,146,100521.045
0.87,4000,True,i,113.3,Riprolls,Twix,0.17,True,Riprolls,1.04,True,TEST00003,113.3,101305.545,147,101192.245
-0.46,4000,True,u,68.32,Reeses,Reeses,2.73,True,Sourpatch,2.27,True,TEST00003,68.32,101882.265,148,101813.945
-0.03,4000,True,u,128.24,Snickers,Snickers,1.6,True,PeanutMMs,1.57,True,TEST00003,128.24,102513.46,149,102385.22
0.03,4000,True,i,119.045,starburst,Ruffles,1.56,True,starburst,1.59,True,TEST00003,119.045,103136.345,150,103017.3
-0.42,4000,False,NaN,4002.21,NaN,Milano,1.55,True,Doritosranch,1.13,True,TEST00003,4002.21,107643.345,151,103641.135
-0.08,4000,False,NaN,4002.19,NaN,100grand_small,1.64,True,Fritos,1.56,True,TEST00003,4002.19,112151.745,152,108149.555
-0.69,4000,False,NaN,4002.345,NaN,PayDay,1.73,True,Riprolls,1.04,True,TEST00003,4002.345,116658.78,153,112656.435
-0.08,4000,False,NaN,4001.445,NaN,Cheezits,1.55,True,FamousAmos_small,1.47,True,TEST00003,4001.445,121161.81,154,117160.365
-0.01,4000,False,NaN,4000.205,NaN,Toberlorone,1.82,True,Cheese_PeanutButterCrackers,1.81,True,TEST00003,4000.205,125668.47,155,121668.265
-0.53,4000,False,NaN,4005.365,NaN,TeddyGrahamschocolate,1.29,True,MilkyWay,0.76,True,TEST00003,4005.365,130175.63,156,126170.265
0.0,4000,False,NaN,4003.995,NaN,Laysclassic,1.55,True,Dots_one,1.55,True,TEST00003,4003.995,134685.64,157,130681.645
-0.01,4000,False,NaN,4000.505,NaN,Jollyranchergreen,1.75,True,MrGoodbar,1.74,True,TEST00003,4000.505,139188.21,158,135187.705
0.02,4000,False,NaN,4000.95,NaN,PeanutMMs,1.57,True,starburst,1.59,True,TEST00003,4000.95,143690.72,159,139689.77
0.33,4000,False,NaN,4000.76,NaN,Twix,0.17,True,Whatchamacallit,0.5,True,TEST00003,4000.76,148192.87,160,144192.11
-0.05,4000,False,NaN,4000.84,NaN,BabyRuth,1.7,True,Butterfinger,1.65,True,TEST00003,4000.84,152696.725,161,148695.885
0.08,4000,False,NaN,4001.11,NaN,Riprolls,1.04,True,SourSkittles,1.12,True,TEST00003,4001.11,157199.105,162,153197.995
-1.12,4000,True,u,2732.665,TeddyGrahamschocolate,TeddyGrahamschocolate,1.29,True,Twix,0.17,True,TEST00003,2732.665,160434.785,163,157702.12
0.07,4000,True,u,72.595,Laysclassic,Laysclassic,1.55,True,Granolabar,1.62,True,TEST00003,72.595,161014.71,164,160942.115
-0.05,4000,True,u,58.805,Funyuns_small,Funyuns_small,1.63,True,Crunch,1.58,True,TEST00003,58.805,161582.76,165,161523.955
0.0,4000,True,u,22.165,Milano,Milano,1.55,True,Cheezits,1.55,True,TEST00003,22.165,162110.835,166,162088.67
-0.13,4000,True,i,30.88,PringlesRed,FlamingCheetos,2.76,True,PringlesRed,2.63,True,TEST00003,30.88,162653.7,167,162622.82
-0.13,4000,False,NaN,4003.795,NaN,Snickers,1.6,True,FamousAmos_small,1.47,True,TEST00003,4003.795,167162.57,168,163158.775
0.01,4000,False,NaN,4002.115,NaN,PayDay,1.73,True,MrGoodbar,1.74,True,TEST00003,4002.115,171669.255,169,167667.14
0.03,4000,False,NaN,4005.155,NaN,Reeses,2.73,True,FlamingCheetos,2.76,True,TEST00003,4005.155,176179.815,170,172174.66
-0.01,4000,False,NaN,4004.66,NaN,Hersheykisses,1.82,True,Cheese_PeanutButterCrackers,1.81,True,TEST00003,4004.66,180690.41,171,176685.75
-0.01,4000,True,u,52.05,PeanutMMs,PeanutMMs,1.57,True,Ruffles,1.56,True,TEST00003,52.05,181246.94,172,181194.89
-0.59,4000,True,i,37.195,Toberlorone,RiceKrispyTreat_small,2.41,True,Toberlorone,1.82,True,TEST00003,37.195,181787.155,173,181749.96
-0.5,4000,True,u,90.835,Cheetos,Cheetos,2.32,True,Hersheykisses,1.82,True,TEST00003,90.835,182383.055,174,182292.22
-0.25,4000,True,i,70.91,Funyuns_small,PopTartsStrawberry,1.88,True,Funyuns_small,1.63,True,TEST00003,70.91,182958.85,175,182887.94
-0.25,4000,True,i,5.74000000002,Whatchamacallit,Almondjoy,0.75,True,Whatchamacallit,0.5,True,TEST00003,5.74000000002,183478.825,176,183473.085
-0.47,4000,True,i,28.295,Whatchamacallit,Keeblerfudgestripes,0.97,True,Whatchamacallit,0.5,True,TEST00003,28.295,184014.99,177,183986.695
-0.32,4000,True,u,59.815,AnimalCrackers,AnimalCrackers,1.82,True,Laffytaffyred_one,1.5,True,TEST00003,59.815,184634.805,178,184574.99
-0.72,4000,True,i,75.41,Almondjoy,FamousAmos_small,1.47,True,Almondjoy,0.75,True,TEST00003,75.41,185228.735,179,185153.325
-0.61,4000,True,u,109.94,MrGoodbar,MrGoodbar,1.74,True,Doritosranch,1.13,True,TEST00003,109.94,185847.03,180,185737.09
0.42,4000,True,i,230.57,Ghiradelli_milk_Almonds,BabyRuth,1.7,True,Ghiradelli_milk_Almonds,2.12,True,TEST00003,230.57,186586.86,181,186356.29
0.02,4000,True,i,132.88,PopTartsStrawberry,KitKat_small,1.86,True,PopTartsStrawberry,1.88,True,TEST00003,132.88,187226.835,182,187093.955
-0.61,4000,True,i,54.19,SourSkittles,Lollipopred,1.73,True,SourSkittles,1.12,True,TEST00003,54.19,187784.805,183,187730.615
-0.14,4000,True,u,128.58,MrGoodbar,MrGoodbar,1.74,True,Snickers,1.6,True,TEST00003,128.58,188452.745,184,188324.165
-0.89,4000,True,i,137.905,CheesyDoritos,MrsFields,1.32,True,CheesyDoritos,0.43,True,TEST00003,137.905,189096.8,185,188958.895
-0.49,4000,True,u,178.255,WheatThins,WheatThins,1.53,True,Riprolls,1.04,True,TEST00003,178.255,189780.755,186,189602.5
-0.06,4000,True,u,15.055,Laffytaffyred_one,Laffytaffyred_one,1.5,True,Nutterbutter,1.44,True,TEST00003,15.055,190304.73,187,190289.675
0.84,4000,True,i,7.35500000001,Slimjim,Crunch,1.58,True,Slimjim,2.42,True,TEST00003,7.35500000001,190817.69,188,190810.335
-0.91,4000,True,u,156.37,Reeses,Reeses,2.73,True,Hersheykisses,1.82,True,TEST00003,156.37,191481.685,189,191325.315
-0.37,4000,True,u,66.825,Cheezits,Cheezits,1.55,True,3Musketeers,1.18,True,TEST00003,66.825,192057.475,190,191990.65
-0.02,4000,True,i,25.245,Funyuns_small,Butterfinger,1.65,True,Funyuns_small,1.63,True,TEST00003,25.245,192605.495,191,192580.25
-0.08,4000,True,u,26.095,FigNewton_small,FigNewton_small,2.16,True,Ghiradelli_milk,2.08,True,TEST00003,26.095,193137.61,192,193111.515
0.61,4000,True,u,67.24,RitzBitz2,RitzBitz2,1.8,True,RiceKrispyTreat_small,2.41,True,TEST00003,67.24,193747.375,193,193680.135
-0.04,4000,True,i,1439.0,Laffytaffyred_one,Milkduds,1.54,True,Laffytaffyred_one,1.5,True,TEST00003,1439.0,195704.4,194,194265.4
0.38,4000,False,NaN,4005.33,NaN,3Musketeers,1.18,True,Ruffles,1.56,True,TEST00003,4005.33,200214.04,195,196208.71
-0.19,4000,False,NaN,4001.365,NaN,MrsFields,1.32,True,Doritosranch,1.13,True,TEST00003,4001.365,204721.37,196,200720.005
-0.3,4000,False,NaN,4002.6,NaN,Slimjim,2.42,True,Ghiradelli_milk_Almonds,2.12,True,TEST00003,4002.6,209229.515,197,205226.915
0.14,4000,False,NaN,4001.22,NaN,3Musketeers,1.18,True,MrsFields,1.32,True,TEST00003,4001.22,213736.59,198,209735.37
0.26,4000,False,NaN,4000.265,NaN,MrsFields,1.32,True,Crunch,1.58,True,TEST00003,4000.265,218238.555,199,214238.29
-0.82,4000,False,NaN,4000.46,NaN,PringlesRed,2.63,True,Cheese_PeanutButterCrackers,1.81,True,TEST00003,4000.46,222743.675,200,218743.215
0.54,4000,False,NaN,4005.335,NaN,AnimalCrackers,1.82,True,Goldfish,2.36,True,TEST00003,4005.335,227255.19,201,223249.855
-0.73,4000,False,NaN,4005.34,NaN,BabyRuth,1.7,True,Keeblerfudgestripes,0.97,True,TEST00003,4005.34,231766.675,202,227761.335
0.01,4000,False,NaN,4005.34,NaN,Dots_one,1.55,True,Fritos,1.56,True,TEST00003,4005.34,236273.67,203,232268.33
-0.01,4000,False,NaN,4004.12,NaN,100grand_small,1.64,True,Funyuns_small,1.63,True,TEST00003,4004.12,240783.955,204,236779.835
-0.31,4000,True,u,630.03,Reeses,Reeses,2.73,True,Slimjim,2.42,True,TEST00003,630.03,241919.42,205,241289.39
-0.02,4000,True,u,111.38,Jollyranchergreen,Jollyranchergreen,1.75,True,PayDay,1.73,True,TEST00003,111.38,242539.405,206,242428.025
0.35,4000,True,i,29.945,MrsFields,Keeblerfudgestripes,0.97,True,MrsFields,1.32,True,TEST00003,29.945,243075.38,207,243045.435
0.37,4000,True,u,34.86,Nutterbutter,Nutterbutter,1.44,True,Cheese_PeanutButterCrackers,1.81,True,TEST00003,34.86,243619.355,208,243584.495
-1.16,4000,True,u,140.63,FlamingCheetos,FlamingCheetos,2.76,True,TootsieRolls,1.6,True,TEST00003,140.63,244296.095,209,244155.465
