delta,maxTrialTime,receivedResponse,rsp,rt,selected,stimulus1,stimulus1Bid,stimulus1Loaded,stimulus2,stimulus2Bid,stimulus2Loaded,subjectID,trialDuration,trialEndTime,trialN,trialStartTime
-0.61,4000,True,u,737.975,Keeblerfudgestripes,Keeblerfudgestripes,2.5,True,Chocolate_mm,1.89,True,TEST00008,737.975,1367.365,0,629.39
0.05,4000,True,u,278.31,Ghiradelli_milk_Almonds,Ghiradelli_milk_Almonds,1.52,True,KitKat_small,1.57,True,TEST00008,278.31,2155.365,1,1877.055
0.48,4000,True,i,219.415,Hersheykisses,Hersheymilk_several,0.97,True,Hersheykisses,1.45,True,TEST00008,219.415,2878.29,2,2658.875
0.54,4000,True,u,15.355,Riprolls,Riprolls,1.37,True,PayDay,1.91,True,TEST00008,15.355,3402.105,3,3386.75
0.36,4000,False,NaN,5759.255,NaN,CheesyDoritos,0.92,True,MrsFields,1.28,True,TEST00008,5759.255,9701.85,4,3942.595
-0.19,4000,False,NaN,4395.055,NaN,Toberlorone,1.51,True,Ruffles,1.32,True,TEST00008,4395.055,15112.97,5,10717.915
0.04,4000,False,NaN,4764.445,NaN,TootsieRolls,1.57,True,Sourpatch,1.61,True,TEST00008,4764.445,20389.085,6,15624.64
-0.07,4000,False,NaN,5308.67,NaN,PopTartsStrawberry,1.48,True,Goldfish,1.41,True,TEST00008,5308.67,27293.335,7,21984.665
-0.01,4000,False,NaN,5580.23,NaN,Oreos,1.65,True,Jollyranchergreen,1.64,True,TEST00008,5580.23,34790.86,8,29210.63
0.64,4000,False,NaN,4994.275,NaN,RitzBitz2,1.98,True,Lollipopred,2.62,True,TEST00008,4994.275,40697.355,9,35703.08
0.01,4000,False,NaN,5765.375,NaN,Toberlorone,1.51,True,Funyuns_small,1.52,True,TEST00008,5765.375,47825.88,10,42060.505
-0.01,4000,False,NaN,5851.455,NaN,FigNewton_small,2.28,True,Ghiradelli_milk,2.27,True,TEST00008,5851.455,54805.18,11,48953.725
0.21,4000,False,NaN,4599.66,NaN,FlamingCheetos,2.58,True,Granolabar,2.79,True,TEST00008,4599.66,60697.36,12,56097.7
0.54,4000,False,NaN,5506.64,NaN,Twix,2.27,True,Dots_one,2.81,True,TEST00008,5506.64,67702.715,13,62196.075
0.07,4000,False,NaN,4547.48,NaN,PayDay,1.91,True,RitzBitz2,1.98,True,TEST00008,4547.48,73697.21,14,69149.73
0.77,4000,False,NaN,5293.31,NaN,Doritosranch,0.61,True,FamousAmos_small,1.38,True,TEST00008,5293.31,80459.54,15,75166.23
0.22,4000,False,NaN,4388.07,NaN,TeddyGrahamschocolate,1.26,True,PopTartsStrawberry,1.48,True,TEST00008,4388.07,86698.69,16,82310.62
0.04,4000,False,NaN,5532.8,NaN,PringlesRed,1.53,True,KitKat_small,1.57,True,TEST00008,5532.8,93699.62,17,88166.82
-0.02,4000,False,NaN,4646.645,NaN,Riprolls,1.37,True,Whatchamacallit,1.35,True,TEST00008,4646.645,99697.35,18,95050.705
-0.23,4000,True,u,1130.015,Crunch,Crunch,2.79,True,Milano,2.56,True,TEST00008,1130.015,102294.94,19,101164.925
0.59,4000,False,NaN,5237.15,NaN,Almondjoy,1.38,True,RiceKrispyTreat_small,1.97,True,TEST00008,5237.15,108040.895,20,102803.745
-0.21,4000,False,NaN,5934.655,NaN,RitzBitz2,1.98,True,PeanutMMs,1.77,True,TEST00008,5934.655,114831.945,21,108897.29
-1.02,4000,False,NaN,4999.405,NaN,Keeblerfudgestripes,2.5,True,PopTartsStrawberry,1.48,True,TEST00008,4999.405,120697.39,22,115697.985
-0.31,4000,False,NaN,4987.285,NaN,FlamingCheetos,2.58,True,Twix,2.27,True,TEST00008,4987.285,126698.89,23,121711.605
0.0,4000,False,NaN,4718.935,NaN,Hersheykisses,1.45,True,Cheetos,1.45,True,TEST00008,4718.935,132697.35,24,127978.415
-0.61,4000,False,NaN,4005.365,NaN,FlamingCheetos,2.58,True,RiceKrispyTreat_small,1.97,True,TEST00008,4005.365,138031.555,25,134026.19
0.52,4000,True,u,54.155,Ghiradelli_milk,Ghiradelli_milk,2.27,True,Granolabar,2.79,True,TEST00008,54.155,138591.365,26,138537.21
0.02,4000,True,u,3.215,Butterfinger,Butterfinger,1.2,False,Cheezits,1.22,False,TEST00008,3.215,139099.335,27,139096.12
0.4,4000,True,i,127.765,Riprolls,Hersheymilk_several,0.97,True,Riprolls,1.37,True,TEST00008,127.765,139731.17,28,139603.405
0.65,4000,True,i,18.91,Milano,PayDay,1.91,True,Milano,2.56,True,TEST00008,18.91,140254.22,29,140235.31
0.71,4000,True,u,49.465,Doritosranch,Doritosranch,0.61,True,Ruffles,1.32,True,TEST00008,49.465,140810.145,30,140760.68
-0.04,4000,True,i,84.795,Goldfish,Hersheykisses,1.45,True,Goldfish,1.41,True,TEST00008,84.795,141401.07,31,141316.275
-0.17,4000,True,u,235.43,Ghiradelli_milk_Almonds,Ghiradelli_milk_Almonds,1.52,True,starburst,1.35,True,TEST00008,235.43,142145.205,32,141909.775
0.54,4000,True,i,153.405,Chocolate_mm,starburst,1.35,True,Chocolate_mm,1.89,True,TEST00008,153.405,142804.17,33,142650.765
0.02,4000,True,i,96.94,Ruffles,Reeses,1.3,True,Ruffles,1.32,True,TEST00008,96.94,143406.11,34,143309.17
0.1,4000,True,i,109.255,MilkyWay,Hersheymilk_several,0.97,True,MilkyWay,1.07,True,TEST00008,109.255,144019.045,35,143909.79
-0.08,4000,False,NaN,4002.01,NaN,KitKat_small,1.57,True,Milkduds,1.49,True,TEST00008,4002.01,148529.465,36,144527.455
0.6,4000,False,NaN,4001.315,NaN,Hersheymilk_several,0.97,True,KitKat_small,1.57,True,TEST00008,4001.315,153036.21,37,149034.895
-0.53,4000,True,u,2407.63,Cheetos,Cheetos,1.45,True,CheesyDoritos,0.92,True,TEST00008,2407.63,155949.505,38,153541.875
0.08,4000,True,i,60.755,Slimjim,Jollyranchergreen,1.64,True,Slimjim,1.72,True,TEST00008,60.755,156517.33,39,156456.575
0.81,4000,True,u,29.285,PeanutMMs,PeanutMMs,1.77,True,FlamingCheetos,2.58,True,TEST00008,29.285,157065.6,40,157036.315
-1.11,4000,True,i,104.11,Toberlorone,Lollipopred,2.62,True,Toberlorone,1.51,True,TEST00008,104.11,157715.33,41,157611.22
-0.26,4000,True,i,147.875,Butterfinger,Fritos,1.46,True,Butterfinger,1.2,True,TEST00008,147.875,158367.425,42,158219.55
-0.03,4000,True,i,160.64,Whatchamacallit,Almondjoy,1.38,True,Whatchamacallit,1.35,True,TEST00008,160.64,159032.395,43,158871.755
-0.75,4000,True,i,79.855,3Musketeers,Lollipopred,2.62,True,3Musketeers,1.87,True,TEST00008,79.855,159619.375,44,159539.52
-0.1,4000,True,i,150.915,PeanutMMs,AnimalCrackers,1.87,True,PeanutMMs,1.77,True,TEST00008,150.915,160277.34,45,160126.425
-0.04,4000,True,u,31.145,Goldfish,Goldfish,1.41,True,Riprolls,1.37,True,TEST00008,31.145,160817.335,46,160786.19
0.04,4000,True,u,89.985,Twix,Twix,2.27,True,ChipsAhoy_small,2.31,True,TEST00008,89.985,161449.15,47,161359.165
-0.52,4000,True,i,121.785,Whatchamacallit,AnimalCrackers,1.87,True,Whatchamacallit,1.35,True,TEST00008,121.785,162073.34,48,161951.555
0.53,4000,True,i,252.82,Goldfish,Snickers,0.88,True,Goldfish,1.41,True,TEST00008,252.82,162834.645,49,162581.825
0.54,4000,True,i,458.7,Sourpatch,MilkyWay,1.07,True,Sourpatch,1.61,True,TEST00008,458.7,163802.3,50,163343.6
-0.69,4000,True,u,90.14,TootsieRolls,TootsieRolls,1.57,True,Snickers,0.88,True,TEST00008,90.14,164399.165,51,164309.025
0.39,4000,True,i,257.175,Laysclassic,3Musketeers,1.87,True,Laysclassic,2.26,True,TEST00008,257.175,165164.165,52,164906.99
0.13,4000,True,i,99.26,Jollyranchergreen,Toberlorone,1.51,True,Jollyranchergreen,1.64,True,TEST00008,99.26,165770.135,53,165670.875
0.25,4000,True,i,286.065,RiceKrispyTreat_small,Slimjim,1.72,True,RiceKrispyTreat_small,1.97,True,TEST00008,286.065,166562.5,54,166276.435
0.45,4000,True,i,954.715,RitzBitz2,PringlesRed,1.53,True,RitzBitz2,1.98,True,TEST00008,954.715,168020.915,55,167066.2
-0.65,4000,True,u,67.55,Nutterbutter,Nutterbutter,1.57,True,CheesyDoritos,0.92,True,TEST00008,67.55,168596.89,56,168529.34
0.53,4000,True,i,153.31,Crunch,Laysclassic,2.26,True,Crunch,2.79,True,TEST00008,153.31,169258.945,57,169105.635
-0.85,4000,True,u,38.12,ChipsAhoy_small,ChipsAhoy_small,2.31,True,Fritos,1.46,True,TEST00008,38.12,169800.925,58,169762.805
0.82,4000,True,i,79.72,Ghiradelli_milk,Cheetos,1.45,True,Ghiradelli_milk,2.27,True,TEST00008,79.72,170412.73,59,170333.01
0.03,4000,True,i,187.32,Goldfish,FamousAmos_small,1.38,True,Goldfish,1.41,True,TEST00008,187.32,171107.85,60,170920.53
0.43,4000,True,i,20.22,Oreos,Cheezits,1.22,True,Oreos,1.65,True,TEST00008,20.22,171631.675,61,171611.455
-0.67,4000,True,i,153.82,Sourpatch,FigNewton_small,2.28,True,Sourpatch,1.61,True,TEST00008,153.82,172288.84,62,172135.02
-0.9,4000,True,u,1507.15,Dots_one,Dots_one,2.81,True,PayDay,1.91,True,TEST00008,1507.15,174304.835,63,172797.685
-0.22,4000,True,u,222.885,Keeblerfudgestripes,Keeblerfudgestripes,2.5,True,FigNewton_small,2.28,True,TEST00008,222.885,175036.59,64,174813.705
0.38,4000,True,u,103.185,Snickers,Snickers,0.88,True,TeddyGrahamschocolate,1.26,True,TEST00008,103.185,175648.68,65,175545.495
0.17,4000,True,u,113.575,MrsFields,MrsFields,1.28,True,Hersheykisses,1.45,True,TEST00008,113.575,176268.68,66,176155.105
0.2,4000,True,i,120.695,WheatThins,Reeses,1.3,True,WheatThins,1.5,True,TEST00008,120.695,176895.565,67,176774.87
0.23,4000,True,i,246.615,AnimalCrackers,Jollyranchergreen,1.64,True,AnimalCrackers,1.87,True,TEST00008,246.615,177647.57,68,177400.955
0.08,4000,True,u,11.28,Keeblerfudgestripes,Keeblerfudgestripes,2.5,True,FlamingCheetos,2.58,True,TEST00008,11.28,178167.265,69,178155.985
0.69,4000,True,i,217.94,Laysclassic,TootsieRolls,1.57,True,Laysclassic,2.26,True,TEST00008,217.94,178946.505,70,178728.565
-0.02,4000,True,u,87.015,Toberlorone,Toberlorone,1.51,True,Milkduds,1.49,True,TEST00008,87.015,179537.485,71,179450.47
0.92,4000,True,i,2.12,Crunch,AnimalCrackers,1.87,True,Crunch,2.79,True,TEST00008,2.12,180048.49,72,180046.37
-0.35,4000,True,i,214.69,PayDay,Laysclassic,2.26,True,PayDay,1.91,True,TEST00008,214.69,180770.43,73,180555.74
0.07,4000,True,i,115.31,MrGoodbar,100grand_small,1.46,True,MrGoodbar,1.53,True,TEST00008,115.31,181394.42,74,181279.11
0.0,4000,True,i,0.100000000006,Cheese_PeanutButterCrackers,PopTartsStrawberry,1.48,True,Cheese_PeanutButterCrackers,1.48,False,TEST00008,0.100000000006,181902.25,75,181902.15
-0.47,4000,True,u,267.77,PeanutMMs,PeanutMMs,1.77,True,Reeses,1.3,True,TEST00008,267.77,182680.64,76,182412.87
0.03,4000,True,i,1271.27,ChipsAhoy_small,FigNewton_small,2.28,True,ChipsAhoy_small,2.31,True,TEST00008,1271.27,184458.265,77,183186.995
0.25,4000,True,i,497.465,Ruffles,MilkyWay,1.07,True,Ruffles,1.32,True,TEST00008,497.465,185464.23,78,184966.765
0.03,4000,True,u,74.9,WheatThins,WheatThins,1.5,True,PringlesRed,1.53,True,TEST00008,74.9,186043.215,79,185968.315
0.44,4000,True,i,156.78,ChipsAhoy_small,3Musketeers,1.87,True,ChipsAhoy_small,2.31,True,TEST00008,156.78,186707.12,80,186550.34
0.67,4000,True,i,105.435,ChipsAhoy_small,Jollyranchergreen,1.64,True,ChipsAhoy_small,2.31,True,TEST00008,105.435,187320.175,81,187214.74
-0.04,4000,True,i,536.07,Ghiradelli_milk,ChipsAhoy_small,2.31,True,Ghiradelli_milk,2.27,True,TEST00008,536.07,188365.12,82,187829.05
-0.1,4000,True,i,80.905,Skittles,Milano,2.56,True,Skittles,2.46,True,TEST00008,80.905,188955.015,83,188874.11
0.0,4000,True,u,51.275,Doritosranch,Doritosranch,0.61,True,BabyRuth,0.61,True,TEST00008,51.275,189513.99,84,189462.715
0.0,4000,True,u,7.54999999999,MrGoodbar,MrGoodbar,1.53,True,PringlesRed,1.53,True,TEST00008,7.54999999999,190046.035,85,190038.485
0.04,4000,True,u,78.695,KitKat_small,KitKat_small,1.57,True,Sourpatch,1.61,True,TEST00008,78.695,190630.895,86,190552.2
-0.14,4000,True,i,187.24,Ghiradelli_milk_Almonds,SourSkittles,1.66,True,Ghiradelli_milk_Almonds,1.52,True,TEST00008,187.24,191322.99,87,191135.75
-0.84,4000,True,i,164.24,SourSkittles,Keeblerfudgestripes,2.5,True,SourSkittles,1.66,True,TEST00008,164.24,191995.965,88,191831.725
-0.06,4000,True,i,514.79,PayDay,RiceKrispyTreat_small,1.97,True,PayDay,1.91,True,TEST00008,514.79,193017.005,89,192502.215
1.07,4000,True,i,184.865,Milano,Milkduds,1.49,True,Milano,2.56,True,TEST00008,184.865,193710.91,90,193526.045
0.07,4000,True,i,102.82,PringlesRed,Fritos,1.46,True,PringlesRed,1.53,True,TEST00008,102.82,194322.83,91,194220.01
0.04,4000,True,u,273.22,Nutterbutter,Nutterbutter,1.57,True,Sourpatch,1.61,True,TEST00008,273.22,195104.82,92,194831.6
-1.27,4000,True,i,145.14,Ghiradelli_milk_Almonds,Granolabar,2.79,True,Ghiradelli_milk_Almonds,1.52,True,TEST00008,145.14,195758.8,93,195613.66
0.02,4000,True,u,10.81,Milano,Milano,2.56,True,FlamingCheetos,2.58,True,TEST00008,10.81,196273.74,94,196262.93
-0.19,4000,True,u,287.06,Cheetos,Cheetos,1.45,True,TeddyGrahamschocolate,1.26,True,TEST00008,287.06,197069.69,95,196782.63
0.0,4000,True,i,63.69,Twix,Ghiradelli_milk,2.27,True,Twix,2.27,True,TEST00008,63.69,197641.685,96,197577.995
-0.44,4000,True,i,133.575,Butterfinger,Jollyranchergreen,1.64,True,Butterfinger,1.2,True,TEST00008,133.575,198282.635,97,198149.06
0.02,4000,True,u,147.285,Fritos,Fritos,1.46,True,PopTartsStrawberry,1.48,True,TEST00008,147.285,198936.63,98,198789.345
-0.02,4000,True,i,172.955,WheatThins,Funyuns_small,1.52,True,WheatThins,1.5,True,TEST00008,172.955,199616.575,99,199443.62
0.84,4000,True,i,66.46,Milano,Slimjim,1.72,True,Milano,2.56,True,TEST00008,66.46,200187.39,100,200120.93
0.82,4000,True,i,7.41,Twix,Hersheykisses,1.45,True,Twix,2.27,True,TEST00008,7.41,200703.555,101,200696.145
-0.01,4000,True,i,303.38,Ghiradelli_milk_Almonds,MrGoodbar,1.53,True,Ghiradelli_milk_Almonds,1.52,True,TEST00008,303.38,201511.54,102,201208.16
0.02,4000,True,u,12.76,100grand_small,100grand_small,1.46,True,Cheese_PeanutButterCrackers,1.48,True,TEST00008,12.76,202028.305,103,202015.545
-0.02,4000,True,i,101.215,Granolabar,Dots_one,2.81,True,Granolabar,2.79,True,TEST00008,101.215,202632.5,104,202531.285
-0.59,4000,True,i,71.09,BabyRuth,Butterfinger,1.2,True,BabyRuth,0.61,True,TEST00008,71.09,203208.45,105,203137.36
0.69,4000,True,u,166.855,BabyRuth,BabyRuth,0.61,True,Reeses,1.3,True,TEST00008,166.855,203884.43,106,203717.575
0.25,4000,True,u,95.155,SourSkittles,SourSkittles,1.66,True,PayDay,1.91,True,TEST00008,95.155,204488.38,107,204393.225
0.01,4000,True,i,102.43,Almondjoy,Riprolls,1.37,True,Almondjoy,1.38,True,TEST00008,102.43,205098.39,108,204995.96
0.29,4000,True,u,146.54,Ghiradelli_milk,Ghiradelli_milk,2.27,True,Milano,2.56,True,TEST00008,146.54,205749.295,109,205602.755
0.92,4000,True,u,27.175,BabyRuth,BabyRuth,0.61,True,MrGoodbar,1.53,True,TEST00008,27.175,206285.165,110,206257.99
0.1,4000,True,u,337.21,AnimalCrackers,AnimalCrackers,1.87,True,RiceKrispyTreat_small,1.97,True,TEST00008,337.21,207173.375,111,206836.165
0.82,4000,True,i,935.18,FigNewton_small,100grand_small,1.46,True,FigNewton_small,2.28,True,TEST00008,935.18,208615.3,112,207680.12
-0.2,4000,True,i,427.345,Laffytaffyred_one,Slimjim,1.72,True,Laffytaffyred_one,1.52,True,TEST00008,427.345,209551.255,113,209123.91
0.31,4000,True,i,2088.86,CheesyDoritos,BabyRuth,0.61,True,CheesyDoritos,0.92,True,TEST00008,2088.86,212149.01,114,210060.15
0.33,4000,True,i,128.445,Reeses,Hersheymilk_several,0.97,True,Reeses,1.3,True,TEST00008,128.445,212784.98,115,212656.535
0.06,4000,True,u,87.13,Toberlorone,Toberlorone,1.51,True,TootsieRolls,1.57,True,TEST00008,87.13,213380.95,116,213293.82
-1.27,4000,True,u,9.07499999998,Crunch,Crunch,2.79,True,Funyuns_small,1.52,True,TEST00008,9.07499999998,213898.925,117,213889.85
0.31,4000,True,i,1529.405,Dots_one,Keeblerfudgestripes,2.5,True,Dots_one,2.81,True,TEST00008,1529.405,215931.85,118,214402.445
-0.07,4000,True,i,59.78,Oreos,Slimjim,1.72,True,Oreos,1.65,True,TEST00008,59.78,216500.31,119,216440.53
-0.12,4000,True,u,147.465,PeanutMMs,PeanutMMs,1.77,True,Oreos,1.65,True,TEST00008,147.465,217159.67,120,217012.205
0.43,4000,True,u,426.245,CheesyDoritos,CheesyDoritos,0.92,True,starburst,1.35,True,TEST00008,426.245,218093.18,121,217666.935
-0.04,4000,True,i,248.705,Snickers,CheesyDoritos,0.92,True,Snickers,0.88,True,TEST00008,248.705,218847.715,122,218599.01
0.33,4000,True,i,22.785,Granolabar,Skittles,2.46,True,Granolabar,2.79,True,TEST00008,22.785,219375.59,123,219352.805
1.08,4000,True,u,93.385,WheatThins,WheatThins,1.5,True,FlamingCheetos,2.58,True,TEST00008,93.385,219972.665,124,219879.28
-0.1,4000,True,i,12.9,starburst,Hersheykisses,1.45,True,starburst,1.35,True,TEST00008,12.9,220494.57,125,220481.67
0.19,4000,True,u,101.605,Cheezits,Cheezits,1.22,True,Goldfish,1.41,True,TEST00008,101.605,221099.665,126,220998.06
0.17,4000,True,i,15.97,Granolabar,Lollipopred,2.62,True,Granolabar,2.79,True,TEST00008,15.97,221624.565,127,221608.595
0.29,4000,True,i,506.87,Laysclassic,RiceKrispyTreat_small,1.97,True,Laysclassic,2.26,True,TEST00008,506.87,222642.595,128,222135.725
0.09,4000,True,u,90.91,Laffytaffyred_one,Laffytaffyred_one,1.52,True,Sourpatch,1.61,True,TEST00008,90.91,223237.565,129,223146.655
-0.04,4000,True,i,11.795,Skittles,Keeblerfudgestripes,2.5,True,Skittles,2.46,True,TEST00008,11.795,223758.38,130,223746.585
-0.02,4000,True,u,52.705,Dots_one,Dots_one,2.81,True,Crunch,2.79,True,TEST00008,52.705,224372.5,131,224319.795
0.77,4000,True,i,7.82000000004,Almondjoy,BabyRuth,0.61,True,Almondjoy,1.38,True,TEST00008,7.82000000004,224896.405,132,224888.585
-0.39,4000,True,u,134.405,100grand_small,100grand_small,1.46,True,MilkyWay,1.07,True,TEST00008,134.405,225538.425,133,225404.02
-0.21,4000,True,u,51.44,Milkduds,Milkduds,1.49,True,MrsFields,1.28,True,TEST00008,51.44,226095.435,134,226043.995
-1.29,4000,True,u,141.13,Dots_one,Dots_one,2.81,True,Laffytaffyred_one,1.52,True,TEST00008,141.13,226762.785,135,226621.655
-0.09,4000,True,i,408.845,Cheese_PeanutButterCrackers,TootsieRolls,1.57,True,Cheese_PeanutButterCrackers,1.48,True,TEST00008,408.845,227677.37,136,227268.525
0.06,4000,True,i,2.31,Slimjim,SourSkittles,1.66,True,Slimjim,1.72,True,TEST00008,2.31,228190.255,137,228187.945
-0.04,4000,True,u,93.295,Ruffles,Ruffles,1.32,True,MrsFields,1.28,True,TEST00008,93.295,228787.325,138,228694.03
0.17,4000,True,i,67.205,Crunch,Lollipopred,2.62,True,Crunch,2.79,True,TEST00008,67.205,229361.075,139,229293.87
0.27,4000,True,u,129.15,BabyRuth,BabyRuth,0.61,True,Snickers,0.88,True,TEST00008,129.15,230006.285,140,229877.135
-0.1,4000,True,u,199.53,Cheetos,Cheetos,1.45,True,Whatchamacallit,1.35,True,TEST00008,199.53,230714.24,141,230514.71
0.31,4000,True,i,72.37,CheesyDoritos,Doritosranch,0.61,True,CheesyDoritos,0.92,True,TEST00008,72.37,231294.13,142,231221.76
-0.02,4000,True,u,9.20499999996,Chocolate_mm,Chocolate_mm,1.89,True,3Musketeers,1.87,True,TEST00008,9.20499999996,231811.18,143,231801.975
0.08,4000,True,u,70.09,Butterfinger,Butterfinger,1.2,True,MrsFields,1.28,True,TEST00008,70.09,232387.09,144,232317.0
-0.21,4000,True,i,224.785,SourSkittles,3Musketeers,1.87,True,SourSkittles,1.66,True,TEST00008,224.785,233139.135,145,232914.35
-0.31,4000,True,u,201.08,Almondjoy,Almondjoy,1.38,True,MilkyWay,1.07,True,TEST00008,201.08,233846.05,146,233644.97
-0.28,4000,True,u,24.96,Laysclassic,Laysclassic,2.26,True,RitzBitz2,1.98,True,TEST00008,24.96,234378.92,147,234353.96
-0.02,4000,True,i,103.18,WheatThins,Ghiradelli_milk_Almonds,1.52,True,WheatThins,1.5,True,TEST00008,103.18,235033.905,148,234930.725
-0.81,4000,True,i,613.58,Oreos,Skittles,2.46,True,Oreos,1.65,True,TEST00008,613.58,236150.965,149,235537.385
0.03,4000,True,i,226.31,Funyuns_small,Milkduds,1.49,True,Funyuns_small,1.52,True,TEST00008,226.31,236881.95,150,236655.64
-0.48,4000,True,i,30.99,ChipsAhoy_small,Crunch,2.79,True,ChipsAhoy_small,2.31,True,TEST00008,30.99,237421.845,151,237390.855
0.07,4000,True,u,143.095,FamousAmos_small,FamousAmos_small,1.38,True,Cheetos,1.45,True,TEST00008,143.095,238073.875,152,237930.78
0.02,4000,True,u,22.38,100grand_small,100grand_small,1.46,True,PopTartsStrawberry,1.48,True,TEST00008,22.38,238601.915,153,238579.535
0.61,4000,True,u,106.465,Doritosranch,Doritosranch,0.61,True,Cheezits,1.22,True,TEST00008,106.465,239219.815,154,239113.35
0.08,4000,True,i,115.99,Fritos,Almondjoy,1.38,True,Fritos,1.46,True,TEST00008,115.99,239839.7,155,239723.71
0.19,4000,True,i,121.675,Skittles,Twix,2.27,True,Skittles,2.46,True,TEST00008,121.675,240465.81,156,240344.135
-0.51,4000,True,u,238.16,FigNewton_small,FigNewton_small,2.28,True,PeanutMMs,1.77,True,TEST00008,238.16,241210.725,157,240972.565
-0.26,4000,True,i,8.995,Cheezits,Cheese_PeanutButterCrackers,1.48,True,Cheezits,1.22,True,TEST00008,8.995,241726.655,158,241717.66
-0.23,4000,True,i,65.325,Hersheymilk_several,Butterfinger,1.2,True,Hersheymilk_several,0.97,True,TEST00008,65.325,242299.66,159,242234.335
-0.01,4000,True,i,132.63,Milkduds,WheatThins,1.5,True,Milkduds,1.49,True,TEST00008,132.63,242938.68,160,242806.05
-0.09,4000,True,i,9.54999999999,Riprolls,100grand_small,1.46,True,Riprolls,1.37,True,TEST00008,9.54999999999,243456.675,161,243447.125
0.04,4000,True,u,121.775,MrGoodbar,MrGoodbar,1.53,True,Nutterbutter,1.57,True,TEST00008,121.775,244096.595,162,243974.82
0.15,4000,True,i,313.895,Laffytaffyred_one,Riprolls,1.37,True,Laffytaffyred_one,1.52,True,TEST00008,313.895,244917.44,163,244603.545
0.09,4000,True,i,222.43,Nutterbutter,PopTartsStrawberry,1.48,True,Nutterbutter,1.57,True,TEST00008,222.43,245646.525,164,245424.095
0.08,4000,True,i,429.255,Reeses,Cheezits,1.22,True,Reeses,1.3,True,TEST00008,429.255,246584.61,165,246155.355
-0.7,4000,True,i,22.8,Nutterbutter,Ghiradelli_milk,2.27,True,Nutterbutter,1.57,True,TEST00008,22.8,247112.35,166,247089.55
0.06,4000,True,i,8.67999999999,Ruffles,TeddyGrahamschocolate,1.26,True,Ruffles,1.32,True,TEST00008,8.67999999999,247683.46,167,247674.78
-0.4,4000,True,i,46.345,TeddyGrahamschocolate,SourSkittles,1.66,True,TeddyGrahamschocolate,1.26,True,TEST00008,46.345,248239.47,168,248193.125
-0.18,4000,True,i,183.05,Butterfinger,FamousAmos_small,1.38,True,Butterfinger,1.2,True,TEST00008,183.05,248926.42,169,248743.37
0.24,4000,True,i,18.93,Chocolate_mm,Oreos,1.65,True,Chocolate_mm,1.89,True,TEST00008,18.93,249454.27,170,249435.34
0.44,4000,True,u,94.225,MrGoodbar,MrGoodbar,1.53,True,RiceKrispyTreat_small,1.97,True,TEST00008,94.225,250110.315,171,250016.09
0.0,4000,True,u,37.965,starburst,starburst,1.35,True,Whatchamacallit,1.35,True,TEST00008,37.965,250652.35,172,250614.385
-0.34,4000,True,u,13.44,Lollipopred,Lollipopred,2.62,True,FigNewton_small,2.28,True,TEST00008,13.44,251215.28,173,251201.84
0.17,4000,True,i,197.625,Funyuns_small,Whatchamacallit,1.35,True,Funyuns_small,1.52,True,TEST00008,197.625,251916.3,174,251718.675
0.03,4000,True,i,73.555,Almondjoy,starburst,1.35,True,Almondjoy,1.38,True,TEST00008,73.555,252495.26,175,252421.705
-0.59,4000,True,i,35.995,AnimalCrackers,Skittles,2.46,True,AnimalCrackers,1.87,True,TEST00008,35.995,253040.245,176,253004.25
-0.7,4000,True,i,19.0,KitKat_small,Twix,2.27,True,KitKat_small,1.57,True,TEST00008,19.0,253568.24,177,253549.24
-0.55,4000,True,u,108.525,3Musketeers,3Musketeers,1.87,True,Ruffles,1.32,True,TEST00008,108.525,254228.185,178,254119.66
-0.04,4000,True,u,14.87,MrGoodbar,MrGoodbar,1.53,True,Milkduds,1.49,True,TEST00008,14.87,254752.165,179,254737.295
-0.15,4000,True,i,79.02,MilkyWay,Cheezits,1.22,True,MilkyWay,1.07,True,TEST00008,79.02,255340.145,180,255261.125
0.9,4000,True,i,31.0,Granolabar,Chocolate_mm,1.89,True,Granolabar,2.79,True,TEST00008,31.0,255880.08,181,255849.08
0.6,4000,True,i,120.28,RitzBitz2,FamousAmos_small,1.38,True,RitzBitz2,1.98,True,TEST00008,120.28,256538.055,182,256417.775
-0.01,4000,True,i,39.545,Laffytaffyred_one,PringlesRed,1.53,True,Laffytaffyred_one,1.52,True,TEST00008,39.545,257086.03,183,257046.485
0.0,4000,True,i,173.125,Nutterbutter,TootsieRolls,1.57,True,Nutterbutter,1.57,True,TEST00008,173.125,257781.99,184,257608.865
-0.11,4000,True,u,100.065,Sourpatch,Sourpatch,1.61,True,WheatThins,1.5,True,TEST00008,100.065,258389.975,185,258289.91
0.1,4000,True,i,475.275,Cheese_PeanutButterCrackers,FamousAmos_small,1.38,True,Cheese_PeanutButterCrackers,1.48,True,TEST00008,475.275,259374.04,186,258898.765
-0.85,4000,True,i,90.05,Goldfish,Laysclassic,2.26,True,Goldfish,1.41,True,TEST00008,90.05,259972.935,187,259882.885
-0.98,4000,True,i,98.585,Cheese_PeanutButterCrackers,Skittles,2.46,True,Cheese_PeanutButterCrackers,1.48,True,TEST00008,98.585,260575.93,188,260477.345
-0.01,4000,True,i,90.65,Cheetos,Fritos,1.46,True,Cheetos,1.45,True,TEST00008,90.65,261171.88,189,261081.23
0.02,4000,True,i,271.265,Chocolate_mm,AnimalCrackers,1.87,True,Chocolate_mm,1.89,True,TEST00008,271.265,261948.86,190,261677.595
-0.13,4000,True,i,132.69,Funyuns_small,Oreos,1.65,True,Funyuns_small,1.52,True,TEST00008,132.69,262588.88,191,262456.19
0.04,4000,True,i,318.86,Reeses,TeddyGrahamschocolate,1.26,True,Reeses,1.3,True,TEST00008,318.86,263416.775,192,263097.915
-0.09,4000,True,i,327.395,Chocolate_mm,RitzBitz2,1.98,True,Chocolate_mm,1.89,True,TEST00008,327.395,264252.75,193,263925.355
-0.92,4000,True,i,261.245,Doritosranch,PringlesRed,1.53,True,Doritosranch,0.61,True,TEST00008,261.245,265020.675,194,264759.43
-0.02,4000,True,i,323.215,Jollyranchergreen,SourSkittles,1.66,True,Jollyranchergreen,1.64,True,TEST00008,323.215,265852.76,195,265529.545
0.0,4000,True,i,165.735,KitKat_small,TootsieRolls,1.57,True,KitKat_small,1.57,True,TEST00008,165.735,266525.645,196,266359.91
-0.01,4000,True,u,289.69,Laffytaffyred_one,Laffytaffyred_one,1.52,True,Toberlorone,1.51,True,TEST00008,289.69,267319.61,197,267029.92
0.1,4000,True,i,283.935,3Musketeers,PeanutMMs,1.77,True,3Musketeers,1.87,True,TEST00008,283.935,268112.56,198,267828.625
0.03,4000,True,u,598.795,Hersheykisses,Hersheykisses,1.45,True,Cheese_PeanutButterCrackers,1.48,True,TEST00008,598.795,269218.45,199,268619.655
0.44,4000,True,u,156.69,MrsFields,MrsFields,1.28,True,Slimjim,1.72,True,TEST00008,156.69,269882.42,200,269725.73
0.36,4000,True,i,39.165,Hersheymilk_several,Doritosranch,0.61,True,Hersheymilk_several,0.97,True,TEST00008,39.165,270430.33,201,270391.165
0.0,4000,True,u,844.545,Ghiradelli_milk_Almonds,Ghiradelli_milk_Almonds,1.52,True,Laffytaffyred_one,1.52,True,TEST00008,844.545,271813.36,202,270968.815
-0.19,4000,True,u,203.31,MilkyWay,MilkyWay,1.07,True,Snickers,0.88,True,TEST00008,203.31,272521.34,203,272318.03
0.03,4000,True,u,80.4,starburst,starburst,1.35,True,FamousAmos_small,1.38,True,TEST00008,80.4,273105.71,204,273025.31
0.0,4000,True,i,35.41,100grand_small,Fritos,1.46,True,100grand_small,1.46,True,TEST00008,35.41,273646.59,205,273611.18
0.02,4000,True,u,41.855,TeddyGrahamschocolate,TeddyGrahamschocolate,1.26,True,MrsFields,1.28,True,TEST00008,41.855,274238.355,206,274196.5
-0.47,4000,True,u,57.73,Whatchamacallit,Whatchamacallit,1.35,True,Snickers,0.88,True,TEST00008,57.73,274835.215,207,274777.485
-0.19,4000,True,u,53.855,Dots_one,Dots_one,2.81,True,Lollipopred,2.62,True,TEST00008,53.855,275419.97,208,275366.115
-0.05,4000,True,i,247.635,Funyuns_small,Nutterbutter,1.57,True,Funyuns_small,1.52,True,TEST00008,247.635,276195.175,209,275947.54
