date,maxTrialTime,rating,receivedResponse,rt,stimulus1,stimulus1Loaded,subjectID,trialDuration,trialEndTime,trialN,trialStartTime
2018-01-19 01:26:06,NaN,6.62,True,945.55,TeddyGrahamschocolate,True,MDMMT_0012,945.55,1043.795,0,98.245
2018-01-19 01:26:06,NaN,5.23,True,360.88,KitKat_small,True,MDMMT_0012,360.88,1407.21,1,1046.33
2018-01-19 01:26:06,NaN,4.09,True,256.405,3Musketeers,True,MDMMT_0012,256.405,1665.88,2,1409.475
2018-01-19 01:26:06,NaN,3.17,True,207.22,Milano,True,MDMMT_0012,207.22,1875.855,3,1668.635
2018-01-19 01:26:06,NaN,3.82,True,482.85,Nutterbutter,True,MDMMT_0012,482.85,2360.89,4,1878.04
2018-01-19 01:26:06,NaN,4.31,True,224.055,Cheetos,True,MDMMT_0012,224.055,2587.185,5,2363.13
2018-01-19 01:26:06,NaN,4.89,True,224.82,Goldfish,True,MDMMT_0012,224.82,2813.525,6,2588.705
2018-01-19 01:26:06,NaN,6.17,True,256.73,Cheezits,True,MDMMT_0012,256.73,3071.755,7,2815.025
2018-01-19 01:26:06,NaN,7.85,True,265.235,Riprolls,True,MDMMT_0012,265.235,3338.62,8,3073.385
2018-01-19 01:26:06,NaN,8.71,True,305.035,Laffytaffyred_one,True,MDMMT_0012,305.035,3645.89,9,3340.855
2018-01-19 01:26:06,NaN,9.28,True,182.73,WheatThins,True,MDMMT_0012,182.73,3831.525,10,3648.795
2018-01-19 01:26:06,NaN,9.71,True,805.87,Hersheymilk_several,True,MDMMT_0012,805.87,4639.48,11,3833.61
2018-01-19 01:26:06,NaN,9.85,True,280.71,Ghiradelli_milk,True,MDMMT_0012,280.71,4922.415,12,4641.705
2018-01-19 01:26:06,NaN,9.93,True,280.635,Keeblerfudgestripes,True,MDMMT_0012,280.635,5205.225,13,4924.59
2018-01-19 01:26:06,NaN,9.84,True,692.38,Lollipopred,True,MDMMT_0012,692.38,5900.07,14,5207.69
2018-01-19 01:26:06,NaN,9.46,True,280.765,Slimjim,True,MDMMT_0012,280.765,6182.97,15,5902.205
2018-01-19 01:26:06,NaN,8.95,True,288.62,Toberlorone,True,MDMMT_0012,288.62,6473.825,16,6185.205
2018-01-19 01:26:06,NaN,8.67,True,272.76,Ghiradelli_milk_Almonds,True,MDMMT_0012,272.76,6748.76,17,6476.0
2018-01-19 01:26:06,NaN,8.14,True,232.715,FamousAmos_small,True,MDMMT_0012,232.715,6982.96,18,6750.245
2018-01-19 01:26:06,NaN,7.5,True,232.605,PopTartsStrawberry,True,MDMMT_0012,232.605,7217.72,19,6985.115
2018-01-19 01:26:06,NaN,7.42,True,215.625,Cheese_PeanutButterCrackers,True,MDMMT_0012,215.625,7435.61,20,7219.985
2018-01-19 01:26:06,NaN,7.39,True,232.4,Crunch,True,MDMMT_0012,232.4,7670.13,21,7437.73
2018-01-19 01:26:06,NaN,6.64,True,215.395,Jollyranchergreen,True,MDMMT_0012,215.395,7887.97,22,7672.575
2018-01-19 01:26:06,NaN,5.81,True,361.52,MrsFields,True,MDMMT_0012,361.52,8251.69,23,7890.17
2018-01-19 01:26:06,NaN,6.62,True,563.525,FlamingCheetos,True,MDMMT_0012,563.525,8817.35,24,8253.825
2018-01-19 01:26:06,NaN,7.51,True,248.175,Skittles,True,MDMMT_0012,248.175,9067.765,25,8819.59
2018-01-19 01:26:06,NaN,8.46,True,256.415,100grand_small,True,MDMMT_0012,256.415,9326.375,26,9069.96
2018-01-19 01:26:06,NaN,8.81,True,215.65,Doritosranch,True,MDMMT_0012,215.65,9544.48,27,9328.83
2018-01-19 01:26:06,NaN,9.25,True,240.245,SourSkittles,True,MDMMT_0012,240.245,9786.865,28,9546.62
2018-01-19 01:26:06,NaN,9.21,True,498.755,Snickers,True,MDMMT_0012,498.755,10287.935,29,9789.18
2018-01-19 01:26:06,NaN,8.78,True,207.74,TootsieRolls,True,MDMMT_0012,207.74,10497.96,30,10290.22
2018-01-19 01:26:06,NaN,8.64,True,215.465,Hersheykisses,True,MDMMT_0012,215.465,10715.885,31,10500.42
2018-01-19 01:26:06,NaN,8.43,True,167.83,Almondjoy,True,MDMMT_0012,167.83,10885.815,32,10717.985
2018-01-19 01:26:06,NaN,8.32,True,176.67,PringlesRed,True,MDMMT_0012,176.67,11063.995,33,10887.325
2018-01-19 01:26:06,NaN,9.23,True,361.17,Oreos,True,MDMMT_0012,361.17,11427.3,34,11066.13
2018-01-19 01:26:06,NaN,9.68,True,175.275,Dots_one,True,MDMMT_0012,175.275,11604.965,35,11429.69
2018-01-19 01:26:06,NaN,9.87,True,167.395,Milkduds,True,MDMMT_0012,167.395,11774.695,36,11607.3
2018-01-19 01:26:06,NaN,9.75,True,369.36,AnimalCrackers,True,MDMMT_0012,369.36,12146.87,37,11777.51
2018-01-19 01:26:06,NaN,9.78,True,587.195,Granolabar,True,MDMMT_0012,587.195,12736.245,38,12149.05
2018-01-19 01:26:06,NaN,9.79,True,426.785,RitzBitz2,True,MDMMT_0012,426.785,13164.68,39,12737.895
2018-01-19 01:26:06,NaN,9.79,True,409.955,MrGoodbar,True,MDMMT_0012,409.955,13576.73,40,13166.775
2018-01-19 01:26:06,NaN,9.54,True,207.765,Chocolate_mm,True,MDMMT_0012,207.765,13786.755,41,13578.99
2018-01-19 01:26:06,NaN,9.29,True,256.605,CheesyDoritos,True,MDMMT_0012,256.605,14045.49,42,13788.885
2018-01-19 01:26:06,NaN,8.5,True,478.5,ChipsAhoy_small,True,MDMMT_0012,478.5,14526.165,43,14047.665
2018-01-19 01:26:06,NaN,7.78,True,320.985,Reeses,True,MDMMT_0012,320.985,14849.35,44,14528.365
2018-01-19 01:26:06,NaN,6.98,True,256.3,Sourpatch,True,MDMMT_0012,256.3,15107.985,45,14851.685
2018-01-19 01:26:06,NaN,6.15,True,256.42,MilkyWay,True,MDMMT_0012,256.42,15366.66,46,15110.24
2018-01-19 01:26:06,NaN,5.64,True,248.24,PayDay,True,MDMMT_0012,248.24,15617.2,47,15368.96
2018-01-19 01:26:06,NaN,5.73,True,272.285,FigNewton_small,True,MDMMT_0012,272.285,15891.935,48,15619.65
2018-01-19 01:26:06,NaN,6.15,True,240.12,Ruffles,True,MDMMT_0012,240.12,16134.345,49,15894.225
2018-01-19 01:26:06,NaN,6.59,True,231.985,BabyRuth,True,MDMMT_0012,231.985,16368.635,50,16136.65
2018-01-19 01:26:06,NaN,7.07,True,272.945,Twix,True,MDMMT_0012,272.945,16643.705,51,16370.76
2018-01-19 01:26:06,NaN,7.57,True,255.75,Funyuns_small,True,MDMMT_0012,255.75,16901.925,52,16646.175
2018-01-19 01:26:06,NaN,8.23,True,264.85,RiceKrispyTreat_small,True,MDMMT_0012,264.85,17168.99,53,16904.14
2018-01-19 01:26:06,NaN,7.23,True,361.085,Laysclassic,True,MDMMT_0012,361.085,17532.23,54,17171.145
2018-01-19 01:26:06,NaN,6.6,True,223.85,Whatchamacallit,True,MDMMT_0012,223.85,17758.43,55,17534.58
2018-01-19 01:26:06,NaN,6.12,True,256.235,Butterfinger,True,MDMMT_0012,256.235,18017.015,56,17760.78
2018-01-19 01:26:06,NaN,5.82,True,224.615,starburst,True,MDMMT_0012,224.615,18243.745,57,18019.13
2018-01-19 01:26:06,NaN,6.14,True,255.85,Fritos,True,MDMMT_0012,255.85,18501.865,58,18246.015
2018-01-19 01:26:06,NaN,6.5,True,296.46,PeanutMMs,True,MDMMT_0012,296.46,18800.925,59,18504.465
