date,delta,maxTrialTime,receivedResponse,rsp,rt,selected,stimulus1,stimulus1Bid,stimulus1Loaded,stimulus2,stimulus2Bid,stimulus2Loaded,subjectID,trialDuration,trialEndTime,trialN,trialStartTime
2017-12-27 15:01:05,6.5,4000,True,u,1104.235,Ghiradelli_milk_Almonds,Ghiradelli_milk_Almonds,2.56,True,CheesyDoritos,9.06,True,TEST00051,1104.235,1400.8,0,296.565
2017-12-27 15:01:05,-0.04,4000,True,i,150.87,Hersheykisses,Keeblerfudgestripes,0.04,True,Hersheykisses,0.0,True,TEST00051,150.87,2059.735,1,1908.865
2017-12-27 15:01:05,9.27,4000,True,u,15.825,Twix,Twix,0.73,True,Butterfinger,10.0,True,TEST00051,15.825,2579.59,2,2563.765
2017-12-27 15:01:05,-5.25,4000,True,i,519.455,Reeses,Cheese_PeanutButterCrackers,5.25,True,Reeses,0.0,True,TEST00051,519.455,3656.325,3,3136.87
2017-12-27 15:01:05,-0.06,4000,True,u,131.48,Jollyranchergreen,Jollyranchergreen,1.43,True,Slimjim,1.37,True,TEST00051,131.48,4290.68,4,4159.2
2017-12-27 15:01:05,2.31,4000,True,i,16.85,Doritosranch,Oreos,7.06,True,Doritosranch,9.37,True,TEST00051,16.85,4811.54,5,4794.69
2017-12-27 15:01:05,0.0,4000,True,i,610.345,Butterfinger,Milano,10.0,True,Butterfinger,10.0,True,TEST00051,610.345,5983.465,6,5373.12
2017-12-27 15:01:05,-0.23,4000,True,u,386.06,WheatThins,WheatThins,0.23,True,Reeses,0.0,True,TEST00051,386.06,6874.43,7,6488.37
2017-12-27 15:01:05,6.33,4000,True,i,186.62,Goldfish,Granolabar,2.31,True,Goldfish,8.64,True,TEST00051,186.62,7568.385,8,7381.765
2017-12-27 15:01:05,0.13,4000,True,u,173.915,Keeblerfudgestripes,Keeblerfudgestripes,0.04,True,Ruffles,0.17,True,TEST00051,173.915,8248.36,9,8074.445
2017-12-27 15:01:05,-8.63,4000,True,i,174.865,Slimjim,RiceKrispyTreat_small,10.0,True,Slimjim,1.37,True,TEST00051,174.865,8928.435,10,8753.57
2017-12-27 15:01:05,0.52,4000,True,u,86.295,SourSkittles,SourSkittles,6.37,True,Toberlorone,6.89,True,TEST00051,86.295,9517.29,11,9430.995
2017-12-27 15:01:05,-10.0,4000,True,u,116.395,PringlesRed,PringlesRed,10.0,True,Hersheykisses,0.0,True,TEST00051,116.395,10137.295,12,10020.9
2017-12-27 15:01:05,-0.01,4000,True,u,185.705,Hersheymilk_several,Hersheymilk_several,1.35,True,TeddyGrahamschocolate,1.34,True,TEST00051,185.705,10825.31,13,10639.605
2017-12-27 15:01:05,-1.99,4000,True,i,310.085,BabyRuth,Ghiradelli_milk_Almonds,2.56,True,BabyRuth,0.57,True,TEST00051,310.085,11639.25,14,11329.165
2017-12-27 15:01:05,-0.05,4000,True,u,197.82,Goldfish,Goldfish,8.64,True,Laysclassic,8.59,True,TEST00051,197.82,12340.14,15,12142.32
2017-12-27 15:01:05,-0.71,4000,True,u,89.89,MrsFields,MrsFields,8.31,True,Fritos,7.6,True,TEST00051,89.89,12932.265,16,12842.375
2017-12-27 15:01:05,-6.01,4000,True,i,53.925,Almondjoy,Milkduds,6.71,True,Almondjoy,0.7,True,TEST00051,53.925,13492.135,17,13438.21
2017-12-27 15:01:05,-10.0,4000,True,i,101.335,Reeses,Nutterbutter,10.0,True,Reeses,0.0,True,TEST00051,101.335,14096.13,18,13994.795
2017-12-27 15:01:05,0.41,4000,True,u,109.085,FlamingCheetos,FlamingCheetos,9.34,True,Lollipopred,9.75,True,TEST00051,109.085,14708.125,19,14599.04
2017-12-27 15:01:05,-0.68,4000,False,NaN,4000.46,NaN,Dots_one,4.07,True,PayDay,3.39,True,TEST00051,4000.46,19211.44,20,15210.98
2017-12-27 15:01:05,-2.21,4000,False,NaN,4002.535,NaN,Nutterbutter,10.0,True,TootsieRolls,7.79,True,TEST00051,4002.535,23719.215,21,19716.68
2017-12-27 15:01:05,-0.03,4000,True,u,3913.505,Twix,Twix,0.73,True,Almondjoy,0.7,True,TEST00051,3913.505,28137.68,22,24224.175
2017-12-27 15:01:05,9.83,4000,True,u,20.22,Ruffles,Ruffles,0.17,True,PeanutMMs,10.0,True,TEST00051,20.22,28664.655,23,28644.435
2017-12-27 15:01:05,-2.47,4000,True,i,162.43,starburst,Goldfish,8.64,True,starburst,6.17,True,TEST00051,162.43,29385.66,24,29223.23
2017-12-27 15:01:05,2.69,4000,True,u,30.195,Hersheymilk_several,Hersheymilk_several,1.35,True,AnimalCrackers,4.04,True,TEST00051,30.195,29918.605,25,29888.41
2017-12-27 15:01:05,0.84,4000,True,u,79.445,FigNewton_small,FigNewton_small,8.31,True,PopTartsStrawberry,9.15,True,TEST00051,79.445,30502.595,26,30423.15
2017-12-27 15:01:05,-0.42,4000,True,u,35.52,RitzBitz2,RitzBitz2,7.48,True,Oreos,7.06,True,TEST00051,35.52,31044.555,27,31009.035
2017-12-27 15:01:05,2.44,4000,True,i,3.13,Riprolls,Milkduds,6.71,True,Riprolls,9.15,False,TEST00051,3.13,31555.585,28,31552.455
2017-12-27 15:01:05,-6.17,4000,True,i,37.21,MilkyWay,Riprolls,9.15,True,MilkyWay,2.98,True,TEST00051,37.21,32096.47,29,32059.26
2017-12-27 15:01:05,-1.11,4000,True,i,43.11,WheatThins,TeddyGrahamschocolate,1.34,True,WheatThins,0.23,True,TEST00051,43.11,32645.535,30,32602.425
2017-12-27 15:01:05,5.17,4000,True,u,53.87,Hersheykisses,Hersheykisses,0.0,True,Funyuns_small,5.17,True,TEST00051,53.87,33242.685,31,33188.815
2017-12-27 15:01:05,0.17,4000,True,i,144.205,Ruffles,Reeses,0.0,True,Ruffles,0.17,True,TEST00051,144.205,33918.415,32,33774.21
2017-12-27 15:01:05,-0.29,4000,False,NaN,5147.89,NaN,Cheezits,5.46,True,Funyuns_small,5.17,True,TEST00051,5147.89,39568.75,33,34420.86
2017-12-27 15:01:05,0.02,4000,False,NaN,5227.155,NaN,Doritosranch,9.37,True,Whatchamacallit,9.39,True,TEST00051,5227.155,45543.805,34,40316.65
2017-12-27 15:01:05,-0.62,4000,False,NaN,4992.75,NaN,Hersheymilk_several,1.35,True,Twix,0.73,True,TEST00051,4992.75,51313.76,35,46321.01
2017-12-27 15:01:05,-0.33,4000,False,NaN,5831.0,NaN,Goldfish,8.64,True,FigNewton_small,8.31,True,TEST00051,5831.0,58266.045,36,52435.045
2017-12-27 15:01:05,-0.54,4000,False,NaN,4997.245,NaN,Milkduds,6.71,True,starburst,6.17,True,TEST00051,4997.245,64460.52,37,59463.275
2017-12-27 15:01:05,-0.55,4000,False,NaN,5338.61,NaN,Riprolls,9.15,True,100grand_small,8.6,True,TEST00051,5338.61,70707.66,38,65369.05
2017-12-27 15:01:05,-0.24,4000,False,NaN,4978.615,NaN,Cheese_PeanutButterCrackers,5.25,True,Laffytaffyred_one,5.01,True,TEST00051,4978.615,76433.83,39,71455.215
2017-12-27 15:01:05,-4.77,4000,False,NaN,5112.62,NaN,Lollipopred,9.75,True,Ghiradelli_milk,4.98,True,TEST00051,5112.62,82496.65,40,77384.03
2017-12-27 15:01:05,-0.42,4000,False,NaN,5198.975,NaN,Ghiradelli_milk_Almonds,2.56,True,Crunch,2.14,True,TEST00051,5198.975,88533.2,41,83334.225
2017-12-27 15:01:05,-5.29,4000,False,NaN,4985.95,NaN,Cheezits,5.46,True,Ruffles,0.17,True,TEST00051,4985.95,94314.085,42,89328.135
2017-12-27 15:01:06,7.44,4000,False,NaN,4751.605,NaN,Ghiradelli_milk_Almonds,2.56,True,Nutterbutter,10.0,True,TEST00051,4751.605,100313.805,43,95562.2
2017-12-27 15:01:06,-0.57,4000,False,NaN,4999.785,NaN,BabyRuth,0.57,True,Reeses,0.0,True,TEST00051,4999.785,106554.405,44,101554.62
2017-12-27 15:01:06,0.92,4000,False,NaN,5233.99,NaN,Skittles,3.15,True,Dots_one,4.07,True,TEST00051,5233.99,112554.435,45,107320.445
2017-12-27 15:01:06,1.69,4000,False,NaN,5486.815,NaN,MrsFields,8.31,True,Milano,10.0,True,TEST00051,5486.815,118805.34,46,113318.525
2017-12-27 15:01:06,-0.17,4000,False,NaN,5978.385,NaN,Ruffles,0.17,True,Hersheykisses,0.0,True,TEST00051,5978.385,125531.795,47,119553.41
2017-12-27 15:01:06,-2.88,4000,False,NaN,4996.245,NaN,MrsFields,8.31,True,Sourpatch,5.43,True,TEST00051,4996.245,131323.035,48,126326.79
2017-12-27 15:01:06,-8.57,4000,False,NaN,5977.865,NaN,Butterfinger,10.0,True,Jollyranchergreen,1.43,True,TEST00051,5977.865,138409.715,49,132431.85
2017-12-27 15:01:06,-1.07,4000,False,NaN,5099.85,NaN,KitKat_small,7.78,True,Cheetos,6.71,True,TEST00051,5099.85,144502.005,50,139402.155
2017-12-27 15:01:06,-0.09,4000,False,NaN,5127.5,NaN,PopTartsStrawberry,9.15,True,CheesyDoritos,9.06,True,TEST00051,5127.5,150469.775,51,145342.275
2017-12-27 15:01:06,-2.61,4000,False,NaN,5356.225,NaN,KitKat_small,7.78,True,Funyuns_small,5.17,True,TEST00051,5356.225,156714.93,52,151358.705
2017-12-27 15:01:06,-0.38,4000,False,NaN,4882.155,NaN,KitKat_small,7.78,True,Chocolate_mm,7.4,True,TEST00051,4882.155,162347.39,53,157465.235
2017-12-27 15:01:06,0.0,4000,False,NaN,5980.54,NaN,Hersheykisses,0.0,True,Reeses,0.0,True,TEST00051,5980.54,169397.065,54,163416.525
2017-12-27 15:01:06,-8.63,4000,False,NaN,5982.7,NaN,PeanutMMs,10.0,True,Slimjim,1.37,True,TEST00051,5982.7,176379.83,55,170397.13
2017-12-27 15:01:06,5.27,4000,False,NaN,5084.395,NaN,WheatThins,0.23,True,3Musketeers,5.5,True,TEST00051,5084.395,182486.645,56,177402.25
2017-12-27 15:01:06,9.3,4000,False,NaN,5123.085,NaN,Almondjoy,0.7,True,PeanutMMs,10.0,True,TEST00051,5123.085,188476.03,57,183352.945
2017-12-27 15:01:06,-0.99,4000,False,NaN,5317.955,NaN,ChipsAhoy_small,6.0,True,Laffytaffyred_one,5.01,True,TEST00051,5317.955,194730.91,58,189412.955
2017-12-27 15:01:06,6.05,4000,False,NaN,5972.495,NaN,Jollyranchergreen,1.43,True,RitzBitz2,7.48,True,TEST00051,5972.495,201452.65,59,195480.155
2017-12-27 15:01:06,-0.31,4000,False,NaN,5979.395,NaN,TootsieRolls,7.79,True,RitzBitz2,7.48,True,TEST00051,5979.395,208341.935,60,202362.54
2017-12-27 15:01:06,7.69,4000,False,NaN,5974.51,NaN,Granolabar,2.31,True,PringlesRed,10.0,True,TEST00051,5974.51,215400.335,61,209425.825
2017-12-27 15:01:06,-0.29,4000,False,NaN,5284.27,NaN,100grand_small,8.6,True,FigNewton_small,8.31,True,TEST00051,5284.27,221679.585,62,216395.315
2017-12-27 15:01:06,-0.65,4000,False,NaN,5983.395,NaN,Hersheymilk_several,1.35,True,Almondjoy,0.7,True,TEST00051,5983.395,228411.64,63,222428.245
2017-12-27 15:01:06,-3.55,4000,False,NaN,5980.945,NaN,Ghiradelli_milk,4.98,True,Jollyranchergreen,1.43,True,TEST00051,5980.945,235370.7,64,229389.755
2017-12-27 15:01:06,0.07,4000,False,NaN,4920.72,NaN,Sourpatch,5.43,True,3Musketeers,5.5,True,TEST00051,4920.72,241331.77,65,236411.05
2017-12-27 15:01:06,-0.18,4000,False,NaN,5023.345,NaN,FamousAmos_small,9.93,True,Lollipopred,9.75,True,TEST00051,5023.345,247450.845,66,242427.5
2017-12-27 15:01:06,-0.19,4000,False,NaN,5134.03,NaN,FlamingCheetos,9.34,True,PopTartsStrawberry,9.15,True,TEST00051,5134.03,253494.79,67,248360.76
2017-12-27 15:01:06,0.12,4000,False,NaN,5000.465,NaN,WheatThins,0.23,True,Snickers,0.35,True,TEST00051,5000.465,259314.5,68,254314.035
2017-12-27 15:01:06,-6.46,4000,False,NaN,4004.915,NaN,100grand_small,8.6,True,Crunch,2.14,True,TEST00051,4004.915,264443.74,69,260438.825
2017-12-27 15:01:06,2.05,4000,False,NaN,4465.355,NaN,TeddyGrahamschocolate,1.34,True,PayDay,3.39,True,TEST00051,4465.355,269410.415,70,264945.06
2017-12-27 15:01:06,1.34,4000,False,NaN,5399.515,NaN,Hersheykisses,0.0,True,TeddyGrahamschocolate,1.34,True,TEST00051,5399.515,275775.9,71,270376.385
2017-12-27 15:01:06,0.0,4000,False,NaN,5982.595,NaN,Milano,10.0,True,Nutterbutter,10.0,True,TEST00051,5982.595,282493.205,72,276510.61
2017-12-27 15:01:06,1.73,4000,False,NaN,5332.26,NaN,Ghiradelli_milk,4.98,True,Milkduds,6.71,True,TEST00051,5332.26,288742.485,73,283410.225
2017-12-27 15:01:06,1.0,4000,False,NaN,5010.13,NaN,Snickers,0.35,True,Hersheymilk_several,1.35,True,TEST00051,5010.13,294338.445,74,289328.315
2017-12-27 15:01:06,4.92,4000,False,NaN,5110.37,NaN,Laffytaffyred_one,5.01,True,FamousAmos_small,9.93,True,TEST00051,5110.37,300542.58,75,295432.21
2017-12-27 15:01:06,7.44,4000,False,NaN,5479.785,NaN,Ghiradelli_milk_Almonds,2.56,True,Butterfinger,10.0,True,TEST00051,5479.785,306800.775,76,301320.99
2017-12-27 15:01:06,0.97,4000,False,NaN,4894.835,NaN,AnimalCrackers,4.04,True,Laffytaffyred_one,5.01,True,TEST00051,4894.835,312420.075,77,307525.24
2017-12-27 15:01:06,-0.22,4000,False,NaN,5981.815,NaN,BabyRuth,0.57,True,Snickers,0.35,True,TEST00051,5981.815,319340.58,78,313358.765
2017-12-27 15:01:06,1.69,4000,False,NaN,5967.105,NaN,FigNewton_small,8.31,True,PeanutMMs,10.0,True,TEST00051,5967.105,326391.475,79,320424.37
2017-12-27 15:01:06,1.23,4000,False,NaN,4983.33,NaN,starburst,6.17,True,Chocolate_mm,7.4,True,TEST00051,4983.33,332391.305,80,327407.975
2017-12-27 15:01:06,5.32,4000,False,NaN,5249.43,NaN,Dots_one,4.07,True,Whatchamacallit,9.39,True,TEST00051,5249.43,338624.36,81,333374.93
2017-12-27 15:01:06,-1.39,4000,False,NaN,5982.595,NaN,Cheezits,5.46,True,Dots_one,4.07,True,TEST00051,5982.595,345324.045,82,339341.45
2017-12-27 15:01:06,1.7,4000,False,NaN,5982.82,NaN,Laffytaffyred_one,5.01,True,Cheetos,6.71,True,TEST00051,5982.82,352390.725,83,346407.905
2017-12-27 15:01:06,8.57,4000,False,NaN,5948.91,NaN,Jollyranchergreen,1.43,True,Nutterbutter,10.0,True,TEST00051,5948.91,359357.075,84,353408.165
2017-12-27 15:01:06,-1.79,4000,False,NaN,5982.63,NaN,Crunch,2.14,True,Snickers,0.35,True,TEST00051,5982.63,366389.925,85,360407.295
2017-12-27 15:01:06,-1.44,4000,False,NaN,5957.25,NaN,Lollipopred,9.75,True,FigNewton_small,8.31,True,TEST00051,5957.25,373356.31,86,367399.06
2017-12-27 15:01:06,-7.02,4000,False,NaN,5965.46,NaN,Milano,10.0,True,MilkyWay,2.98,True,TEST00051,5965.46,380355.615,87,374390.155
2017-12-27 15:01:06,1.41,4000,False,NaN,5164.82,NaN,Laysclassic,8.59,True,Butterfinger,10.0,True,TEST00051,5164.82,386554.57,88,381389.75
2017-12-27 15:01:06,9.6,4000,False,NaN,5215.92,NaN,MrGoodbar,0.4,True,Nutterbutter,10.0,True,TEST00051,5215.92,392538.825,89,387322.905
2017-12-27 15:01:06,-2.87,4000,False,NaN,5966.49,NaN,Sourpatch,5.43,True,Ghiradelli_milk_Almonds,2.56,True,TEST00051,5966.49,399288.0,90,393321.51
2017-12-27 15:01:06,0.66,4000,False,NaN,5980.015,NaN,Keeblerfudgestripes,0.04,True,Almondjoy,0.7,True,TEST00051,5980.015,406422.06,91,400442.045
2017-12-27 15:01:06,-1.08,4000,False,NaN,5498.615,NaN,Whatchamacallit,9.39,True,MrsFields,8.31,True,TEST00051,5498.615,412870.69,92,407372.075
2017-12-27 15:01:06,-1.66,4000,False,NaN,4659.555,NaN,CheesyDoritos,9.06,True,Chocolate_mm,7.4,True,TEST00051,4659.555,419313.845,93,414654.29
2017-12-27 15:01:06,0.0,4000,False,NaN,5948.855,NaN,RiceKrispyTreat_small,10.0,True,Milano,10.0,True,TEST00051,5948.855,426370.2,94,420421.345
2017-12-27 15:01:06,-8.63,4000,False,NaN,5366.07,NaN,PringlesRed,10.0,True,Slimjim,1.37,True,TEST00051,5366.07,432753.915,95,427387.845
2017-12-27 15:01:06,0.56,4000,False,NaN,5982.995,NaN,Ruffles,0.17,True,Twix,0.73,True,TEST00051,5982.995,439486.16,96,433503.165
2017-12-27 15:01:06,1.56,4000,False,NaN,5365.62,NaN,KitKat_small,7.78,True,FlamingCheetos,9.34,True,TEST00051,5365.62,445718.99,97,440353.37
2017-12-27 15:01:06,-0.53,4000,False,NaN,5977.755,NaN,MrsFields,8.31,True,KitKat_small,7.78,True,TEST00051,5977.755,452447.53,98,446469.775
2017-12-27 15:01:06,-0.78,4000,False,NaN,5488.21,NaN,FamousAmos_small,9.93,True,Riprolls,9.15,True,TEST00051,5488.21,458802.81,99,453314.6
2017-12-27 15:01:06,0.75,4000,False,NaN,5167.77,NaN,Laysclassic,8.59,True,FlamingCheetos,9.34,True,TEST00051,5167.77,464591.45,100,459423.68
2017-12-27 15:01:06,-5.33,4000,False,NaN,5477.685,NaN,Doritosranch,9.37,True,AnimalCrackers,4.04,True,TEST00051,5477.685,470818.0,101,465340.315
2017-12-27 15:01:06,0.19,4000,False,NaN,5983.61,NaN,Riprolls,9.15,True,FlamingCheetos,9.34,True,TEST00051,5983.61,478669.56,102,472685.95
2017-12-27 15:01:07,0.89,4000,False,NaN,5116.97,NaN,Milkduds,6.71,True,Fritos,7.6,True,TEST00051,5116.97,484535.115,103,479418.145
2017-12-27 15:01:07,7.86,4000,False,NaN,5456.22,NaN,Crunch,2.14,True,RiceKrispyTreat_small,10.0,True,TEST00051,5456.22,490798.0,104,485341.78
2017-12-27 15:01:07,2.42,4000,False,NaN,5507.645,NaN,Twix,0.73,True,Skittles,3.15,True,TEST00051,5507.645,497056.265,105,491548.62
2017-12-27 15:01:07,1.67,4000,False,NaN,5099.305,NaN,RitzBitz2,7.48,True,Riprolls,9.15,True,TEST00051,5099.305,503667.77,106,498568.465
2017-12-27 15:01:07,2.4,4000,False,NaN,5984.065,NaN,Fritos,7.6,True,RiceKrispyTreat_small,10.0,True,TEST00051,5984.065,510369.25,107,504385.185
2017-12-27 15:01:07,3.03,4000,False,NaN,4949.67,NaN,Crunch,2.14,True,Funyuns_small,5.17,True,TEST00051,4949.67,516366.37,108,511416.7
2017-12-27 15:01:07,0.52,4000,False,NaN,5967.33,NaN,Ghiradelli_milk,4.98,True,3Musketeers,5.5,True,TEST00051,5967.33,523384.615,109,517417.285
2017-12-27 15:01:07,1.58,4000,False,NaN,5149.14,NaN,Oreos,7.06,True,Goldfish,8.64,True,TEST00051,5149.14,529532.78,110,524383.64
2017-12-27 15:01:07,0.0,4000,False,NaN,5449.33,NaN,RiceKrispyTreat_small,10.0,True,PringlesRed,10.0,True,TEST00051,5449.33,535766.49,111,530317.16
2017-12-27 15:01:07,-0.34,4000,False,NaN,5952.455,NaN,Cheetos,6.71,True,SourSkittles,6.37,True,TEST00051,5952.455,542468.445,112,536515.99
2017-12-27 15:01:07,5.65,4000,False,NaN,5722.135,NaN,Snickers,0.35,True,ChipsAhoy_small,6.0,True,TEST00051,5722.135,549071.215,113,543349.08
2017-12-27 15:01:07,0.54,4000,False,NaN,5007.44,NaN,Whatchamacallit,9.39,True,FamousAmos_small,9.93,True,TEST00051,5007.44,555564.19,114,550556.75
2017-12-27 15:01:07,0.9,4000,False,NaN,5116.315,NaN,Toberlorone,6.89,True,TootsieRolls,7.79,True,TEST00051,5116.315,561432.095,115,556315.78
2017-12-27 15:01:07,-0.03,4000,False,NaN,5316.73,NaN,Dots_one,4.07,True,AnimalCrackers,4.04,True,TEST00051,5316.73,567681.89,116,562365.16
2017-12-27 15:01:07,2.3,4000,False,NaN,5981.53,NaN,Dots_one,4.07,True,SourSkittles,6.37,True,TEST00051,5981.53,574397.215,117,568415.685
2017-12-27 15:01:07,0.77,4000,False,NaN,5916.9,NaN,100grand_small,8.6,True,Doritosranch,9.37,True,TEST00051,5916.9,581331.87,118,575414.97
2017-12-27 15:01:07,-0.47,4000,False,NaN,5966.41,NaN,CheesyDoritos,9.06,True,Laysclassic,8.59,True,TEST00051,5966.41,588331.02,119,582364.61
2017-12-27 15:01:07,-9.65,4000,False,NaN,5145.825,NaN,PringlesRed,10.0,True,Snickers,0.35,True,TEST00051,5145.825,594560.745,120,589414.92
2017-12-27 15:01:07,2.94,4000,False,NaN,5461.235,NaN,Granolabar,2.31,True,Cheese_PeanutButterCrackers,5.25,True,TEST00051,5461.235,600775.78,121,595314.545
2017-12-27 15:01:07,1.11,4000,False,NaN,4999.66,NaN,SourSkittles,6.37,True,RitzBitz2,7.48,True,TEST00051,4999.66,606513.96,122,601514.3
2017-12-27 15:01:07,1.91,4000,False,NaN,4982.29,NaN,MrGoodbar,0.4,True,Granolabar,2.31,True,TEST00051,4982.29,612346.805,123,607364.515
2017-12-27 15:01:07,1.99,4000,False,NaN,5966.09,NaN,Chocolate_mm,7.4,True,Whatchamacallit,9.39,True,TEST00051,5966.09,619396.67,124,613430.58
2017-12-27 15:01:07,-5.55,4000,False,NaN,5365.76,NaN,Toberlorone,6.89,True,TeddyGrahamschocolate,1.34,True,TEST00051,5365.76,625762.735,125,620396.975
2017-12-27 15:01:07,1.86,4000,False,NaN,5482.55,NaN,PayDay,3.39,True,Cheese_PeanutButterCrackers,5.25,True,TEST00051,5482.55,631979.335,126,626496.785
2017-12-27 15:01:07,2.22,4000,False,NaN,4899.07,NaN,KitKat_small,7.78,True,PringlesRed,10.0,True,TEST00051,4899.07,638495.755,127,633596.685
2017-12-27 15:01:07,0.0,4000,False,NaN,5981.49,NaN,Cheetos,6.71,True,Milkduds,6.71,True,TEST00051,5981.49,645328.78,128,639347.29
2017-12-27 15:01:07,2.33,4000,False,NaN,5905.715,NaN,Fritos,7.6,True,FamousAmos_small,9.93,True,TEST00051,5905.715,652344.8,129,646439.085
2017-12-27 15:01:07,3.09,4000,False,NaN,5448.375,NaN,3Musketeers,5.5,True,Laysclassic,8.59,True,TEST00051,5448.375,658944.225,130,653495.85
2017-12-27 15:01:07,-0.03,4000,False,NaN,5966.045,NaN,Cheezits,5.46,True,Sourpatch,5.43,True,TEST00051,5966.045,666594.59,131,660628.545
2017-12-27 15:01:07,-0.42,4000,False,NaN,5976.5,NaN,MilkyWay,2.98,True,Ghiradelli_milk_Almonds,2.56,True,TEST00051,5976.5,673293.835,132,667317.335
2017-12-27 15:01:07,0.35,4000,False,NaN,5897.25,NaN,Milkduds,6.71,True,Oreos,7.06,True,TEST00051,5897.25,680344.63,133,674447.38
2017-12-27 15:01:07,-2.45,4000,False,NaN,4915.77,NaN,FlamingCheetos,9.34,True,Toberlorone,6.89,True,TEST00051,4915.77,686376.9,134,681461.13
2017-12-27 15:01:07,-5.95,4000,False,NaN,5166.5,NaN,FlamingCheetos,9.34,True,PayDay,3.39,True,TEST00051,5166.5,692526.67,135,687360.17
2017-12-27 15:01:07,-0.24,4000,False,NaN,5466.785,NaN,PayDay,3.39,True,Skittles,3.15,True,TEST00051,5466.785,698793.31,136,693326.525
2017-12-27 15:01:07,-2.69,4000,False,NaN,5899.385,NaN,CheesyDoritos,9.06,True,SourSkittles,6.37,True,TEST00051,5899.385,705426.535,137,699527.15
2017-12-27 15:01:07,1.34,4000,False,NaN,5979.86,NaN,Laysclassic,8.59,True,FamousAmos_small,9.93,True,TEST00051,5979.86,712356.52,138,706376.66
2017-12-27 15:01:07,-1.25,4000,False,NaN,5488.005,NaN,MrsFields,8.31,True,Oreos,7.06,True,TEST00051,5488.005,718896.745,139,713408.74
2017-12-27 15:01:07,-2.61,4000,False,NaN,5983.255,NaN,ChipsAhoy_small,6.0,True,PayDay,3.39,True,TEST00051,5983.255,726626.27,140,720643.015
2017-12-27 15:01:07,0.17,4000,False,NaN,5725.0,NaN,WheatThins,0.23,True,MrGoodbar,0.4,True,TEST00051,5725.0,733083.45,141,727358.45
2017-12-27 15:01:07,2.48,4000,False,NaN,4839.255,NaN,MilkyWay,2.98,True,Cheezits,5.46,True,TEST00051,4839.255,739314.005,142,734474.75
2017-12-27 15:01:07,-1.58,4000,False,NaN,5296.39,NaN,Doritosranch,9.37,True,TootsieRolls,7.79,True,TEST00051,5296.39,745728.1,143,740431.71
2017-12-27 15:01:07,-0.24,4000,False,NaN,4899.105,NaN,Whatchamacallit,9.39,True,PopTartsStrawberry,9.15,True,TEST00051,4899.105,751357.92,144,746458.815
2017-12-27 15:01:07,0.18,4000,False,NaN,5166.365,NaN,Fritos,7.6,True,KitKat_small,7.78,True,TEST00051,5166.365,757590.915,145,752424.55
2017-12-27 15:01:07,0.31,4000,False,NaN,5982.74,NaN,Keeblerfudgestripes,0.04,True,Snickers,0.35,True,TEST00051,5982.74,764323.97,146,758341.23
2017-12-27 15:01:07,6.03,4000,False,NaN,5966.09,NaN,Slimjim,1.37,True,Chocolate_mm,7.4,True,TEST00051,5966.09,771373.705,147,765407.615
2017-12-27 15:01:07,-6.0,4000,False,NaN,5966.055,NaN,PopTartsStrawberry,9.15,True,Skittles,3.15,True,TEST00051,5966.055,778373.41,148,772407.355
2017-12-27 15:01:07,-1.55,4000,False,NaN,5132.69,NaN,PopTartsStrawberry,9.15,True,Fritos,7.6,True,TEST00051,5132.69,784523.21,149,779390.52
2017-12-27 15:01:07,-0.25,4000,False,NaN,5431.805,NaN,3Musketeers,5.5,True,Cheese_PeanutButterCrackers,5.25,True,TEST00051,5431.805,790772.065,150,785340.26
2017-12-27 15:01:07,-0.08,4000,False,NaN,5969.28,NaN,RitzBitz2,7.48,True,Chocolate_mm,7.4,True,TEST00051,5969.28,797489.1,151,791519.82
2017-12-27 15:01:07,0.54,4000,False,NaN,5983.155,NaN,Cheezits,5.46,True,ChipsAhoy_small,6.0,True,TEST00051,5983.155,804322.48,152,798339.325
2017-12-27 15:01:07,-0.17,4000,False,NaN,5116.115,NaN,Oreos,7.06,True,Toberlorone,6.89,True,TEST00051,5116.115,810554.55,153,805438.435
2017-12-27 15:01:07,0.57,4000,False,NaN,5100.245,NaN,Sourpatch,5.43,True,ChipsAhoy_small,6.0,True,TEST00051,5100.245,816422.33,154,811322.085
2017-12-27 15:01:07,-2.44,4000,False,NaN,5358.535,NaN,PopTartsStrawberry,9.15,True,Cheetos,6.71,True,TEST00051,5358.535,822714.225,155,817355.69
2017-12-27 15:01:07,0.5,4000,False,NaN,4973.3,NaN,3Musketeers,5.5,True,ChipsAhoy_small,6.0,True,TEST00051,4973.3,828410.75,156,823437.45
2017-12-27 15:01:07,2.28,4000,False,NaN,5552.43,NaN,Almondjoy,0.7,True,MilkyWay,2.98,True,TEST00051,5552.43,834940.405,157,829387.975
2017-12-27 15:01:07,5.39,4000,False,NaN,5511.69,NaN,Keeblerfudgestripes,0.04,True,Sourpatch,5.43,True,TEST00051,5511.69,842142.295,158,836630.605
2017-12-27 15:01:07,1.59,4000,False,NaN,5116.175,NaN,PayDay,3.39,True,Ghiradelli_milk,4.98,True,TEST00051,5116.175,848636.72,159,843520.545
2017-12-27 15:01:07,-5.77,4000,False,NaN,5033.375,NaN,starburst,6.17,True,MrGoodbar,0.4,True,TEST00051,5033.375,854403.675,160,849370.3
2017-12-27 15:01:08,-9.96,4000,False,NaN,5200.15,NaN,Milano,10.0,True,Keeblerfudgestripes,0.04,True,TEST00051,5200.15,860703.5,161,855503.35
2017-12-27 15:01:08,2.27,4000,False,NaN,5966.525,NaN,RitzBitz2,7.48,True,Lollipopred,9.75,True,TEST00051,5966.525,867420.125,162,861453.6
2017-12-27 15:01:08,0.19,4000,False,NaN,4900.34,NaN,Fritos,7.6,True,TootsieRolls,7.79,True,TEST00051,4900.34,873352.935,163,868452.595
2017-12-27 15:01:08,2.54,4000,False,NaN,5197.225,NaN,Cheese_PeanutButterCrackers,5.25,True,TootsieRolls,7.79,True,TEST00051,5197.225,879619.38,164,874422.155
2017-12-27 15:01:08,1.39,4000,False,NaN,5332.775,NaN,AnimalCrackers,4.04,True,Sourpatch,5.43,True,TEST00051,5332.775,885702.005,165,880369.23
2017-12-27 15:01:08,2.13,4000,False,NaN,5966.485,NaN,AnimalCrackers,4.04,True,starburst,6.17,True,TEST00051,5966.485,892402.135,166,886435.65
2017-12-27 15:01:08,0.64,4000,False,NaN,5093.585,NaN,Almondjoy,0.7,True,TeddyGrahamschocolate,1.34,True,TEST00051,5093.585,898501.98,167,893408.395
2017-12-27 15:01:08,0.89,4000,False,NaN,5965.935,NaN,Skittles,3.15,True,AnimalCrackers,4.04,True,TEST00051,5965.935,905285.095,168,899319.16
2017-12-27 15:01:08,0.56,4000,False,NaN,5016.64,NaN,Doritosranch,9.37,True,FamousAmos_small,9.93,True,TEST00051,5016.64,911468.075,169,906451.435
2017-12-27 15:01:08,0.77,4000,False,NaN,5049.675,NaN,BabyRuth,0.57,True,TeddyGrahamschocolate,1.34,True,TEST00051,5049.675,917517.855,170,912468.18
2017-12-27 15:01:08,0.03,4000,False,NaN,5468.595,NaN,Ghiradelli_milk,4.98,True,Laffytaffyred_one,5.01,True,TEST00051,5468.595,923786.815,171,918318.22
2017-12-27 15:01:08,0.84,4000,False,NaN,5797.38,NaN,Crunch,2.14,True,MilkyWay,2.98,True,TEST00051,5797.38,930334.49,172,924537.11
2017-12-27 15:01:08,0.17,4000,False,NaN,5977.105,NaN,Crunch,2.14,True,Granolabar,2.31,True,TEST00051,5977.105,937416.78,173,931439.675
2017-12-27 15:01:08,0.08,4000,False,NaN,5432.38,NaN,Funyuns_small,5.17,True,Cheese_PeanutButterCrackers,5.25,True,TEST00051,5432.38,943783.545,174,938351.165
2017-12-27 15:01:08,5.98,4000,False,NaN,5182.205,NaN,Twix,0.73,True,Cheetos,6.71,True,TEST00051,5182.205,949499.99,175,944317.785
2017-12-27 15:01:08,-0.2,4000,False,NaN,5000.67,NaN,SourSkittles,6.37,True,starburst,6.17,True,TEST00051,5000.67,955317.83,176,950317.16
2017-12-27 15:01:08,0.0,4000,False,NaN,5982.67,NaN,Butterfinger,10.0,True,PeanutMMs,10.0,True,TEST00051,5982.67,962482.745,177,956500.075
2017-12-27 15:01:08,-0.19,4000,False,NaN,5965.365,NaN,Funyuns_small,5.17,True,Ghiradelli_milk,4.98,True,TEST00051,5965.365,969282.27,178,963316.905
2017-12-27 15:01:08,9.77,4000,False,NaN,5982.085,NaN,WheatThins,0.23,True,Butterfinger,10.0,True,TEST00051,5982.085,976365.595,179,970383.51
2017-12-27 15:01:08,9.43,4000,False,NaN,5065.88,NaN,BabyRuth,0.57,True,Milano,10.0,True,TEST00051,5065.88,982481.91,180,977416.03
2017-12-27 15:01:08,0.17,4000,False,NaN,5966.94,NaN,MrGoodbar,0.4,True,BabyRuth,0.57,True,TEST00051,5966.94,989316.25,181,983349.31
2017-12-27 15:01:08,9.77,4000,False,NaN,5898.71,NaN,WheatThins,0.23,True,RiceKrispyTreat_small,10.0,True,TEST00051,5898.71,996365.29,182,990466.58
2017-12-27 15:01:08,1.26,4000,False,NaN,5932.56,NaN,Ruffles,0.17,True,Jollyranchergreen,1.43,True,TEST00051,5932.56,1003297.79,183,997365.23
2017-12-27 15:01:08,2.02,4000,False,NaN,5199.49,NaN,Skittles,3.15,True,Funyuns_small,5.17,True,TEST00051,5199.49,1009597.565,184,1004398.075
2017-12-27 15:01:08,0.09,4000,False,NaN,5965.925,NaN,CheesyDoritos,9.06,True,Riprolls,9.15,True,TEST00051,5965.925,1016280.565,185,1010314.64
2017-12-27 15:01:08,0.69,4000,False,NaN,5900.355,NaN,CheesyDoritos,9.06,True,Lollipopred,9.75,True,TEST00051,5900.355,1023330.35,186,1017429.995
2017-12-27 15:01:08,-1.33,4000,False,NaN,5505.825,NaN,Slimjim,1.37,True,Keeblerfudgestripes,0.04,True,TEST00051,5505.825,1030019.835,187,1024514.01
2017-12-27 15:01:08,-2.7,4000,False,NaN,5866.27,NaN,Dots_one,4.07,True,Slimjim,1.37,True,TEST00051,5866.27,1037413.43,188,1031547.16
2017-12-27 15:01:08,-0.4,4000,False,NaN,5234.015,NaN,MrGoodbar,0.4,True,Hersheykisses,0.0,True,TEST00051,5234.015,1043614.33,189,1038380.315
2017-12-27 15:01:08,0.0,4000,False,NaN,4949.305,NaN,PeanutMMs,10.0,True,Nutterbutter,10.0,True,TEST00051,4949.305,1049313.95,190,1044364.645
2017-12-27 15:01:08,0.54,4000,False,NaN,5323.635,NaN,starburst,6.17,True,Cheetos,6.71,True,TEST00051,5323.635,1055752.59,191,1050428.955
2017-12-27 15:01:08,-0.52,4000,False,NaN,5949.11,NaN,MrsFields,8.31,True,TootsieRolls,7.79,True,TEST00051,5949.11,1062312.16,192,1056363.05
2017-12-27 15:01:08,-0.28,4000,False,NaN,4998.99,NaN,Laysclassic,8.59,True,FigNewton_small,8.31,True,TEST00051,4998.99,1068495.43,193,1063496.44
2017-12-27 15:01:08,-0.04,4000,False,NaN,5039.765,NaN,Goldfish,8.64,True,100grand_small,8.6,True,TEST00051,5039.765,1074418.605,194,1069378.84
2017-12-27 15:01:08,-0.33,4000,False,NaN,5466.915,NaN,Twix,0.73,True,MrGoodbar,0.4,True,TEST00051,5466.915,1080795.155,195,1075328.24
2017-12-27 15:01:08,-0.67,4000,False,NaN,5932.02,NaN,MilkyWay,2.98,True,Granolabar,2.31,True,TEST00051,5932.02,1087477.225,196,1081545.205
2017-12-27 15:01:08,-2.6,4000,False,NaN,5390.03,NaN,100grand_small,8.6,True,ChipsAhoy_small,6.0,True,TEST00051,5390.03,1093718.31,197,1088328.28
2017-12-27 15:01:08,5.8,4000,False,NaN,4920.26,NaN,BabyRuth,0.57,True,SourSkittles,6.37,True,TEST00051,4920.26,1099313.925,198,1094393.665
2017-12-27 15:01:08,2.35,4000,False,NaN,4883.645,NaN,Skittles,3.15,True,3Musketeers,5.5,True,TEST00051,4883.645,1105327.655,199,1100444.01
2017-12-27 15:01:08,-5.71,4000,False,NaN,5902.08,NaN,Oreos,7.06,True,Hersheymilk_several,1.35,True,TEST00051,5902.08,1112329.495,200,1106427.415
2017-12-27 15:01:08,7.69,4000,False,NaN,5917.78,NaN,Granolabar,2.31,True,PeanutMMs,10.0,True,TEST00051,5917.78,1119294.0,201,1113376.22
2017-12-27 15:01:08,-0.75,4000,False,NaN,5098.875,NaN,Whatchamacallit,9.39,True,Goldfish,8.64,True,TEST00051,5098.875,1125445.11,202,1120346.235
2017-12-27 15:01:08,-1.35,4000,False,NaN,5278.65,NaN,Hersheymilk_several,1.35,True,Reeses,0.0,True,TEST00051,5278.65,1131593.175,203,1126314.525
2017-12-27 15:01:08,-4.99,4000,False,NaN,5059.285,NaN,RiceKrispyTreat_small,10.0,True,Laffytaffyred_one,5.01,True,TEST00051,5059.285,1137375.755,204,1132316.47
2017-12-27 15:01:08,8.57,4000,False,NaN,5960.22,NaN,Jollyranchergreen,1.43,True,PringlesRed,10.0,True,TEST00051,5960.22,1144364.64,205,1138404.42
2017-12-27 15:01:08,2.85,4000,False,NaN,4948.375,NaN,Cheezits,5.46,True,FigNewton_small,8.31,True,TEST00051,4948.375,1150324.625,206,1145376.25
2017-12-27 15:01:08,1.71,4000,False,NaN,5983.2,NaN,Toberlorone,6.89,True,100grand_small,8.6,True,TEST00051,5983.2,1157408.28,207,1151425.08
2017-12-27 15:01:08,0.51,4000,False,NaN,5983.785,NaN,Toberlorone,6.89,True,Chocolate_mm,7.4,True,TEST00051,5983.785,1164358.6,208,1158374.815
2017-12-27 15:01:08,-0.38,4000,False,NaN,5015.92,NaN,Lollipopred,9.75,True,Doritosranch,9.37,True,TEST00051,5015.92,1170423.48,209,1165407.56
