delta,maxTrialTime,receivedResponse,rsp,rt,selected,stimulus1,stimulus1Bid,stimulus1Loaded,stimulus2,stimulus2Bid,stimulus2Loaded,subjectID,timeEnded,trialDuration,trialEndTime,trialN,trialStartTime
-1.53,4000,True,u,400.66,Sourpatch,Sourpatch,1.74,True,Butterfinger,0.21,True,TEST00017,2017-12-01 12:06:03,400.66,1190.065,0,789.405
-1.47,4000,True,i,50.565,Laysclassic,Granolabar,1.9,True,Laysclassic,0.43,True,TEST00017,2017-12-01 12:06:03,50.565,1749.08,1,1698.515
0.22,4000,True,i,75.42,Toberlorone,Granolabar,1.9,True,Toberlorone,2.12,True,TEST00017,2017-12-01 12:06:03,75.42,2330.19,2,2254.77
-1.56,4000,True,u,14.16,AnimalCrackers,AnimalCrackers,2.98,False,Keeblerfudgestripes,1.42,False,TEST00017,2017-12-01 12:06:03,14.16,2848.065,3,2833.905
0.14,4000,True,i,68.035,Milano,PayDay,0.88,True,Milano,1.02,True,TEST00017,2017-12-01 12:06:03,68.035,3424.075,4,3356.04
-1.01,4000,True,u,105.645,SourSkittles,SourSkittles,2.94,True,KitKat_small,1.93,True,TEST00017,2017-12-01 12:06:03,105.645,4032.165,5,3926.52
0.23,4000,True,i,16.355,Funyuns_small,Ruffles,0.07,False,Funyuns_small,0.3,False,TEST00017,2017-12-01 12:06:03,16.355,4551.92,6,4535.565
0.84,4000,True,i,132.175,BabyRuth,Crunch,0.54,True,BabyRuth,1.38,True,TEST00017,2017-12-01 12:06:03,132.175,5188.025,7,5055.85
0.22,4000,True,i,198.37,Laysclassic,Butterfinger,0.21,True,Laysclassic,0.43,True,TEST00017,2017-12-01 12:06:03,198.37,5896.065,8,5697.695
0.07,4000,True,i,41.2,Keeblerfudgestripes,Hersheykisses,1.35,True,Keeblerfudgestripes,1.42,True,TEST00017,2017-12-01 12:06:03,41.2,6445.965,9,6404.765
-0.05,4000,True,i,152.89,Oreos,ChipsAhoy_small,1.62,True,Oreos,1.57,True,TEST00017,2017-12-01 12:06:03,152.89,7103.015,10,6950.125
0.86,4000,True,i,8.02,PringlesRed,Dots_one,0.55,False,PringlesRed,1.41,False,TEST00017,2017-12-01 12:06:03,8.02,7614.905,11,7606.885
0.59,4000,True,u,33.8,starburst,starburst,0.12,True,PeanutMMs,0.71,True,TEST00017,2017-12-01 12:06:03,33.8,8158.775,12,8124.975
-0.11,4000,False,NaN,4005.19,NaN,PeanutMMs,0.71,True,Jollyranchergreen,0.6,True,TEST00017,2017-12-01 12:06:03,4005.19,12672.05,13,8666.86
-0.33,4000,False,NaN,4005.525,NaN,RitzBitz2,2.73,True,Almondjoy,2.4,True,TEST00017,2017-12-01 12:06:03,4005.525,17182.25,14,13176.725
0.12,4000,True,u,366.09,PringlesRed,PringlesRed,1.41,True,Lollipopred,1.53,True,TEST00017,2017-12-01 12:06:03,366.09,18053.745,15,17687.655
-0.65,4000,True,i,114.28,TeddyGrahamschocolate,Milkduds,2.72,True,TeddyGrahamschocolate,2.07,True,TEST00017,2017-12-01 12:06:03,114.28,18675.46,16,18561.18
-0.26,4000,True,i,110.365,PeanutMMs,Whatchamacallit,0.97,True,PeanutMMs,0.71,True,TEST00017,2017-12-01 12:06:03,110.365,19290.44,17,19180.075
0.13,4000,True,u,118.52,Toberlorone,Toberlorone,2.12,True,TootsieRolls,2.25,True,TEST00017,2017-12-01 12:06:03,118.52,19914.415,18,19795.895
-0.9,4000,True,i,123.33,MrsFields,Cheezits,1.08,True,MrsFields,0.18,True,TEST00017,2017-12-01 12:06:03,123.33,20546.335,19,20423.005
-0.01,4000,True,u,130.5,Twix,Twix,1.21,True,Cheetos,1.2,True,TEST00017,2017-12-01 12:06:03,130.5,21180.36,20,21049.86
0.58,4000,True,i,120.335,Goldfish,Cheese_PeanutButterCrackers,1.6,True,Goldfish,2.18,True,TEST00017,2017-12-01 12:06:03,120.335,21809.3,21,21688.965
-0.92,4000,True,i,161.645,Laysclassic,Hersheykisses,1.35,True,Laysclassic,0.43,True,TEST00017,2017-12-01 12:06:03,161.645,22478.29,22,22316.645
0.0,4000,True,u,131.0,Jollyranchergreen,Jollyranchergreen,0.6,True,Chocolate_mm,0.6,True,TEST00017,2017-12-01 12:06:03,131.0,23118.265,23,22987.265
-0.25,4000,True,i,99.025,RitzBitz2,AnimalCrackers,2.98,True,RitzBitz2,2.73,True,TEST00017,2017-12-01 12:06:03,99.025,23726.05,24,23627.025
-0.72,4000,True,u,51.32,Whatchamacallit,Whatchamacallit,0.97,True,MilkyWay,0.25,True,TEST00017,2017-12-01 12:06:03,51.32,24286.145,25,24234.825
0.13,4000,True,i,70.735,FigNewton_small,CheesyDoritos,1.86,True,FigNewton_small,1.99,True,TEST00017,2017-12-01 12:06:03,70.735,24885.935,26,24815.2
0.06,4000,True,u,266.415,starburst,starburst,0.12,True,MrsFields,0.18,True,TEST00017,2017-12-01 12:06:03,266.415,25670.145,27,25403.73
-1.56,4000,True,u,154.415,SourSkittles,SourSkittles,2.94,True,BabyRuth,1.38,True,TEST00017,2017-12-01 12:06:03,154.415,26331.12,28,26176.705
0.14,4000,True,i,84.87,Ghiradelli_milk,PeanutMMs,0.71,True,Ghiradelli_milk,0.85,True,TEST00017,2017-12-01 12:06:03,84.87,26924.94,29,26840.07
-0.12,4000,True,i,219.535,Laysclassic,Dots_one,0.55,True,Laysclassic,0.43,True,TEST00017,2017-12-01 12:06:03,219.535,27648.05,30,27428.515
1.27,4000,True,i,270.645,Toberlorone,Ghiradelli_milk,0.85,True,Toberlorone,2.12,True,TEST00017,2017-12-01 12:06:03,270.645,28427.66,31,28157.015
0.06,4000,True,i,499.295,Goldfish,Laffytaffyred_one,2.12,True,Goldfish,2.18,True,TEST00017,2017-12-01 12:06:03,499.295,29433.84,32,28934.545
0.86,4000,True,u,25.405,Laffytaffyred_one,Laffytaffyred_one,2.12,True,FlamingCheetos,2.98,True,TEST00017,2017-12-01 12:06:03,25.405,29966.855,33,29941.45
-0.91,4000,True,u,140.075,Twix,Twix,1.21,True,Funyuns_small,0.3,True,TEST00017,2017-12-01 12:06:03,140.075,30660.915,34,30520.84
-0.23,4000,True,u,93.935,TeddyGrahamschocolate,TeddyGrahamschocolate,2.07,True,Reeses,1.84,True,TEST00017,2017-12-01 12:06:03,93.935,31260.9,35,31166.965
0.01,4000,True,u,3.68,Snickers,Snickers,2.97,False,MrGoodbar,2.98,False,TEST00017,2017-12-01 12:06:03,3.68,31769.825,36,31766.145
-0.4,4000,True,u,117.555,Doritosranch,Doritosranch,1.6,True,Cheetos,1.2,True,TEST00017,2017-12-01 12:06:03,117.555,32392.84,37,32275.285
-0.9,4000,True,u,1005.2,Whatchamacallit,Whatchamacallit,0.97,True,Ruffles,0.07,True,TEST00017,2017-12-01 12:06:03,1005.2,33906.855,38,32901.655
0.06,4000,True,i,159.82,PopTartsStrawberry,Almondjoy,2.4,True,PopTartsStrawberry,2.46,True,TEST00017,2017-12-01 12:06:03,159.82,34575.74,39,34415.92
-0.01,4000,True,i,55.7,Snickers,AnimalCrackers,2.98,True,Snickers,2.97,True,TEST00017,2017-12-01 12:06:03,55.7,35140.535,40,35084.835
-0.24,4000,True,i,156.73,Whatchamacallit,Twix,1.21,True,Whatchamacallit,0.97,True,TEST00017,2017-12-01 12:06:03,156.73,35814.685,41,35657.955
0.33,4000,True,u,61.03,Sourpatch,Sourpatch,1.74,True,RiceKrispyTreat_small,2.07,True,TEST00017,2017-12-01 12:06:03,61.03,36384.6,42,36323.57
0.04,4000,True,i,104.02,MrGoodbar,SourSkittles,2.94,True,MrGoodbar,2.98,True,TEST00017,2017-12-01 12:06:03,104.02,37015.615,43,36911.595
-0.33,4000,True,u,38.345,Skittles,Skittles,1.18,True,Ghiradelli_milk,0.85,True,TEST00017,2017-12-01 12:06:03,38.345,37558.535,44,37520.19
0.01,4000,True,i,73.555,Dots_one,Crunch,0.54,True,Dots_one,0.55,True,TEST00017,2017-12-01 12:06:03,73.555,38166.58,45,38093.025
0.46,4000,True,i,400.12,Snickers,Ghiradelli_milk_Almonds,2.51,True,Snickers,2.97,True,TEST00017,2017-12-01 12:06:03,400.12,39071.69,46,38671.57
0.13,4000,True,i,1669.915,TootsieRolls,Laffytaffyred_one,2.12,True,TootsieRolls,2.25,True,TEST00017,2017-12-01 12:06:03,1669.915,41246.49,47,39576.575
0.14,4000,True,i,89.08,RiceKrispyTreat_small,KitKat_small,1.93,True,RiceKrispyTreat_small,2.07,True,TEST00017,2017-12-01 12:06:03,89.08,41844.345,48,41755.265
-1.43,4000,True,u,24.365,Ghiradelli_milk_Almonds,Ghiradelli_milk_Almonds,2.51,True,Cheezits,1.08,True,TEST00017,2017-12-01 12:06:03,24.365,42373.23,49,42348.865
0.82,4000,True,i,130.26,SourSkittles,Toberlorone,2.12,True,SourSkittles,2.94,True,TEST00017,2017-12-01 12:06:03,130.26,43063.29,50,42933.03
1.47,4000,True,i,247.92,TeddyGrahamschocolate,Chocolate_mm,0.6,True,TeddyGrahamschocolate,2.07,True,TEST00017,2017-12-01 12:06:03,247.92,43820.325,51,43572.405
-0.11,4000,True,i,82.505,Ruffles,MrsFields,0.18,True,Ruffles,0.07,True,TEST00017,2017-12-01 12:06:03,82.505,44406.295,52,44323.79
0.37,4000,True,i,81.16,Dots_one,MrsFields,0.18,True,Dots_one,0.55,True,TEST00017,2017-12-01 12:06:03,81.16,44996.225,53,44915.065
0.16,4000,True,i,57.82,Slimjim,Lollipopred,1.53,True,Slimjim,1.69,True,TEST00017,2017-12-01 12:06:03,57.82,45563.02,54,45505.2
0.58,4000,True,i,3187.79,MrGoodbar,Almondjoy,2.4,True,MrGoodbar,2.98,True,TEST00017,2017-12-01 12:06:03,3187.79,49261.08,55,46073.29
0.78,4000,True,i,62.975,Almondjoy,ChipsAhoy_small,1.62,True,Almondjoy,2.4,True,TEST00017,2017-12-01 12:06:03,62.975,49833.055,56,49770.08
-0.42,4000,True,i,100.035,Skittles,Cheese_PeanutButterCrackers,1.6,True,Skittles,1.18,True,TEST00017,2017-12-01 12:06:03,100.035,50442.01,57,50341.975
0.25,4000,True,i,96.54,Ghiradelli_milk,Jollyranchergreen,0.6,True,Ghiradelli_milk,0.85,True,TEST00017,2017-12-01 12:06:03,96.54,51043.0,58,50946.46
0.92,4000,True,i,54.505,Milano,Fritos,0.1,True,Milano,1.02,True,TEST00017,2017-12-01 12:06:03,54.505,51605.795,59,51551.29
1.44,4000,True,i,30.38,FigNewton_small,Dots_one,0.55,True,FigNewton_small,1.99,True,TEST00017,2017-12-01 12:06:03,30.38,52155.79,60,52125.41
0.41,4000,True,u,2351.13,Twix,Twix,1.21,True,ChipsAhoy_small,1.62,True,TEST00017,2017-12-01 12:06:03,2351.13,55015.825,61,52664.695
1.56,4000,False,NaN,4746.975,NaN,Funyuns_small,0.3,True,CheesyDoritos,1.86,True,TEST00017,2017-12-01 12:06:03,4746.975,60268.505,62,55521.53
0.42,4000,False,NaN,4566.76,NaN,starburst,0.12,True,Crunch,0.54,True,TEST00017,2017-12-01 12:06:03,4566.76,66269.87,63,61703.11
-0.52,4000,False,NaN,5000.33,NaN,FlamingCheetos,2.98,True,PopTartsStrawberry,2.46,True,TEST00017,2017-12-01 12:06:03,5000.33,72269.435,64,67269.105
0.53,4000,False,NaN,5019.195,NaN,Ruffles,0.07,True,Jollyranchergreen,0.6,True,TEST00017,2017-12-01 12:06:03,5019.195,78782.305,65,73763.11
0.48,4000,False,NaN,7441.615,NaN,PopTartsStrawberry,2.46,True,SourSkittles,2.94,True,TEST00017,2017-12-01 12:06:03,7441.615,87710.555,66,80268.94
-0.23,4000,False,NaN,6068.665,NaN,MilkyWay,0.25,True,Riprolls,0.02,True,TEST00017,2017-12-01 12:06:03,6068.665,94603.46,67,88534.795
0.03,4000,False,NaN,4731.535,NaN,WheatThins,2.69,True,Milkduds,2.72,True,TEST00017,2017-12-01 12:06:04,4731.535,100268.55,68,95537.015
-1.56,4000,False,NaN,6771.75,NaN,Snickers,2.97,True,PringlesRed,1.41,True,TEST00017,2017-12-01 12:06:04,6771.75,108503.29,69,101731.54
0.0,4000,False,NaN,4633.79,NaN,RiceKrispyTreat_small,2.07,True,TeddyGrahamschocolate,2.07,True,TEST00017,2017-12-01 12:06:04,4633.79,114268.665,70,109634.875
-0.07,4000,False,NaN,6234.69,NaN,Ruffles,0.07,True,100grand_small,0.0,True,TEST00017,2017-12-01 12:06:04,6234.69,121503.53,71,115268.84
-1.38,4000,True,u,1133.535,Almondjoy,Almondjoy,2.4,True,Milano,1.02,True,TEST00017,2017-12-01 12:06:04,1133.535,123190.655,72,122057.12
1.37,4000,True,i,54.345,FamousAmos_small,Skittles,1.18,True,FamousAmos_small,2.55,True,TEST00017,2017-12-01 12:06:04,54.345,123750.675,73,123696.33
0.05,4000,True,i,25.13,Slimjim,Hersheymilk_several,1.64,True,Slimjim,1.69,True,TEST00017,2017-12-01 12:06:04,25.13,124280.505,74,124255.375
-1.51,4000,True,u,45.57,Milkduds,Milkduds,2.72,True,Twix,1.21,True,TEST00017,2017-12-01 12:06:04,45.57,124832.67,75,124787.1
0.26,4000,True,u,80.16,Milkduds,Milkduds,2.72,True,FlamingCheetos,2.98,True,TEST00017,2017-12-01 12:06:04,80.16,125442.515,76,125362.355
0.42,4000,True,i,18.285,Reeses,Keeblerfudgestripes,1.42,True,Reeses,1.84,True,TEST00017,2017-12-01 12:06:04,18.285,125969.605,77,125951.32
0.25,4000,True,i,4.37,Goldfish,KitKat_small,1.93,True,Goldfish,2.18,True,TEST00017,2017-12-01 12:06:04,4.37,126538.355,78,126533.985
0.03,4000,True,u,3.76999999999,Oreos,Oreos,1.57,True,Cheese_PeanutButterCrackers,1.6,True,TEST00017,2017-12-01 12:06:04,3.76999999999,127046.395,79,127042.625
0.07,4000,True,u,207.725,Goldfish,Goldfish,2.18,True,TootsieRolls,2.25,True,TEST00017,2017-12-01 12:06:04,207.725,127762.52,80,127554.795
0.12,4000,True,i,117.735,Cheetos,Cheezits,1.08,True,Cheetos,1.2,True,TEST00017,2017-12-01 12:06:04,117.735,128384.495,81,128266.76
-0.04,4000,True,i,83.97,Doritosranch,Hersheymilk_several,1.64,True,Doritosranch,1.6,True,TEST00017,2017-12-01 12:06:04,83.97,128973.44,82,128889.47
-0.13,4000,True,i,164.125,Cheezits,Twix,1.21,True,Cheezits,1.08,True,TEST00017,2017-12-01 12:06:04,164.125,129644.435,83,129480.31
0.87,4000,True,u,3.79000000002,Chocolate_mm,Chocolate_mm,0.6,True,Nutterbutter,1.47,False,TEST00017,2017-12-01 12:06:04,3.79000000002,130152.205,84,130148.415
-0.07,4000,True,u,43.81,Slimjim,Slimjim,1.69,True,ChipsAhoy_small,1.62,True,TEST00017,2017-12-01 12:06:04,43.81,130704.41,85,130660.6
-0.82,4000,True,i,193.495,Hersheymilk_several,PopTartsStrawberry,2.46,True,Hersheymilk_several,1.64,True,TEST00017,2017-12-01 12:06:04,193.495,131435.355,86,131241.86
1.28,4000,True,i,49.115,TootsieRolls,Whatchamacallit,0.97,True,TootsieRolls,2.25,True,TEST00017,2017-12-01 12:06:04,49.115,131991.335,87,131942.22
0.21,4000,True,u,107.805,RitzBitz2,RitzBitz2,2.73,True,SourSkittles,2.94,True,TEST00017,2017-12-01 12:06:04,107.805,132633.31,88,132525.505
0.56,4000,True,u,116.39,FigNewton_small,FigNewton_small,1.99,True,FamousAmos_small,2.55,True,TEST00017,2017-12-01 12:06:04,116.39,133256.23,89,133139.84
-0.09,4000,True,i,15.81,BabyRuth,Nutterbutter,1.47,True,BabyRuth,1.38,True,TEST00017,2017-12-01 12:06:04,15.81,133779.13,90,133763.32
0.42,4000,True,u,23.735,Jollyranchergreen,Jollyranchergreen,0.6,True,Milano,1.02,True,TEST00017,2017-12-01 12:06:04,23.735,134312.16,91,134288.425
0.55,4000,True,i,101.9,Toberlorone,Oreos,1.57,True,Toberlorone,2.12,True,TEST00017,2017-12-01 12:06:04,101.9,134920.255,92,134818.355
0.85,4000,True,i,64.115,Ghiradelli_milk,100grand_small,0.0,True,Ghiradelli_milk,0.85,True,TEST00017,2017-12-01 12:06:04,64.115,135490.88,93,135426.765
0.22,4000,True,i,106.005,Oreos,Hersheykisses,1.35,True,Oreos,1.57,True,TEST00017,2017-12-01 12:06:04,106.005,136109.145,94,136003.14
0.03,4000,True,u,15.945,Ruffles,Ruffles,0.07,True,Fritos,0.1,True,TEST00017,2017-12-01 12:06:04,15.945,136634.135,95,136618.19
-0.95,4000,True,u,95.885,3Musketeers,3Musketeers,1.07,True,starburst,0.12,True,TEST00017,2017-12-01 12:06:04,95.885,137238.105,96,137142.22
-1.52,4000,True,i,85.525,Fritos,ChipsAhoy_small,1.62,True,Fritos,0.1,True,TEST00017,2017-12-01 12:06:04,85.525,137832.06,97,137746.535
1.53,4000,True,u,31.7,Ruffles,Ruffles,0.07,True,Doritosranch,1.6,True,TEST00017,2017-12-01 12:06:04,31.7,138372.825,98,138341.125
0.29,4000,True,u,114.99,MilkyWay,MilkyWay,0.25,True,Crunch,0.54,True,TEST00017,2017-12-01 12:06:04,114.99,138995.02,99,138880.03
-0.06,4000,True,i,23.415,Nutterbutter,Lollipopred,1.53,True,Nutterbutter,1.47,True,TEST00017,2017-12-01 12:06:04,23.415,139526.81,100,139503.395
-0.29,4000,True,u,142.59,MrGoodbar,MrGoodbar,2.98,True,WheatThins,2.69,True,TEST00017,2017-12-01 12:06:04,142.59,140175.965,101,140033.375
0.47,4000,True,u,10.925,Chocolate_mm,Chocolate_mm,0.6,True,3Musketeers,1.07,True,TEST00017,2017-12-01 12:06:04,10.925,140695.75,102,140684.825
-0.01,4000,True,u,109.845,Keeblerfudgestripes,Keeblerfudgestripes,1.42,True,PringlesRed,1.41,True,TEST00017,2017-12-01 12:06:04,109.845,141364.88,103,141255.035
-0.83,4000,True,u,36.255,RitzBitz2,RitzBitz2,2.73,True,Granolabar,1.9,True,TEST00017,2017-12-01 12:06:04,36.255,141907.885,104,141871.63
1.39,4000,True,i,29.22,PopTartsStrawberry,3Musketeers,1.07,True,PopTartsStrawberry,2.46,True,TEST00017,2017-12-01 12:06:04,29.22,142487.85,105,142458.63
0.37,4000,True,i,161.97,Cheezits,PeanutMMs,0.71,True,Cheezits,1.08,True,TEST00017,2017-12-01 12:06:04,161.97,143200.785,106,143038.815
-0.86,4000,True,i,59.035,Riprolls,PayDay,0.88,True,Riprolls,0.02,True,TEST00017,2017-12-01 12:06:04,59.035,143768.81,107,143709.775
0.09,4000,True,u,70.0,PayDay,PayDay,0.88,True,Whatchamacallit,0.97,True,TEST00017,2017-12-01 12:06:04,70.0,144363.555,108,144293.555
-0.95,4000,True,i,13.875,MilkyWay,Cheetos,1.2,True,MilkyWay,0.25,True,TEST00017,2017-12-01 12:06:04,13.875,144887.755,109,144873.88
0.54,4000,True,u,726.955,100grand_small,100grand_small,0.0,True,Crunch,0.54,True,TEST00017,2017-12-01 12:06:04,726.955,146120.79,110,145393.835
0.07,4000,True,u,733.12,Lollipopred,Lollipopred,1.53,True,Cheese_PeanutButterCrackers,1.6,True,TEST00017,2017-12-01 12:06:04,733.12,147357.725,111,146624.605
-0.79,4000,True,u,274.145,Snickers,Snickers,2.97,True,Goldfish,2.18,True,TEST00017,2017-12-01 12:06:04,274.145,148140.605,112,147866.46
-0.73,4000,True,i,115.475,TootsieRolls,AnimalCrackers,2.98,True,TootsieRolls,2.25,True,TEST00017,2017-12-01 12:06:04,115.475,148764.59,113,148649.115
0.02,4000,True,i,67.815,Riprolls,100grand_small,0.0,True,Riprolls,0.02,True,TEST00017,2017-12-01 12:06:04,67.815,149341.375,114,149273.56
-0.12,4000,True,i,28.04,Sourpatch,CheesyDoritos,1.86,True,Sourpatch,1.74,True,TEST00017,2017-12-01 12:06:04,28.04,149873.54,115,149845.5
0.31,4000,True,i,164.7,Slimjim,BabyRuth,1.38,True,Slimjim,1.69,True,TEST00017,2017-12-01 12:06:04,164.7,150541.46,116,150376.76
1.45,4000,True,u,32.07,Lollipopred,Lollipopred,1.53,True,FlamingCheetos,2.98,True,TEST00017,2017-12-01 12:06:04,32.07,151082.43,117,151050.36
0.98,4000,True,i,27.23,Snickers,FigNewton_small,1.99,True,Snickers,2.97,True,TEST00017,2017-12-01 12:06:04,27.23,151654.31,118,151627.08
0.06,4000,True,u,52.65,Hersheykisses,Hersheykisses,1.35,True,PringlesRed,1.41,True,TEST00017,2017-12-01 12:06:04,52.65,152266.41,119,152213.76
0.16,4000,True,i,24.9,Granolabar,Sourpatch,1.74,True,Granolabar,1.9,True,TEST00017,2017-12-01 12:06:04,24.9,152822.265,120,152797.365
-0.97,4000,True,u,48.985,Skittles,Skittles,1.18,True,Butterfinger,0.21,True,TEST00017,2017-12-01 12:06:04,48.985,153430.365,121,153381.38
-0.1,4000,True,i,45.535,Whatchamacallit,3Musketeers,1.07,True,Whatchamacallit,0.97,True,TEST00017,2017-12-01 12:06:04,45.535,154006.21,122,153960.675
-0.19,4000,True,u,74.335,Doritosranch,Doritosranch,1.6,True,PringlesRed,1.41,True,TEST00017,2017-12-01 12:06:04,74.335,154609.12,123,154534.785
-0.86,4000,True,i,358.105,CheesyDoritos,Milkduds,2.72,True,CheesyDoritos,1.86,True,TEST00017,2017-12-01 12:06:04,358.105,155481.385,124,155123.28
-1.38,4000,True,i,483.59,Hersheykisses,RitzBitz2,2.73,True,Hersheykisses,1.35,True,TEST00017,2017-12-01 12:06:04,483.59,156469.24,125,155985.65
-1.51,4000,True,i,83.27,Nutterbutter,MrGoodbar,2.98,True,Nutterbutter,1.47,True,TEST00017,2017-12-01 12:06:04,83.27,157061.225,126,156977.955
-0.09,4000,True,i,83.075,Doritosranch,Slimjim,1.69,True,Doritosranch,1.6,True,TEST00017,2017-12-01 12:06:04,83.075,157653.175,127,157570.1
-0.81,4000,True,i,202.435,Sourpatch,FamousAmos_small,2.55,True,Sourpatch,1.74,True,TEST00017,2017-12-01 12:06:04,202.435,158361.195,128,158158.76
-0.11,4000,True,u,271.215,Ghiradelli_milk_Almonds,Ghiradelli_milk_Almonds,2.51,True,Almondjoy,2.4,True,TEST00017,2017-12-01 12:06:04,271.215,159141.135,129,158869.92
-0.11,4000,True,u,71.22,Goldfish,Goldfish,2.18,True,TeddyGrahamschocolate,2.07,True,TEST00017,2017-12-01 12:06:04,71.22,159720.875,130,159649.655
0.02,4000,True,u,71.95,Doritosranch,Doritosranch,1.6,True,ChipsAhoy_small,1.62,True,TEST00017,2017-12-01 12:06:04,71.95,160300.835,131,160228.885
-0.03,4000,True,u,24.8,Twix,Twix,1.21,True,Skittles,1.18,True,TEST00017,2017-12-01 12:06:04,24.8,160829.045,132,160804.245
0.04,4000,True,i,90.415,MilkyWay,Butterfinger,0.21,True,MilkyWay,0.25,True,TEST00017,2017-12-01 12:06:04,90.415,161461.0,133,161370.585
1.41,4000,True,u,69.015,PeanutMMs,PeanutMMs,0.71,True,Laffytaffyred_one,2.12,True,TEST00017,2017-12-01 12:06:04,69.015,162036.93,134,161967.915
-0.21,4000,True,i,89.51,100grand_small,Butterfinger,0.21,True,100grand_small,0.0,True,TEST00017,2017-12-01 12:06:04,89.51,162628.955,135,162539.445
0.2,4000,True,u,111.62,Keeblerfudgestripes,Keeblerfudgestripes,1.42,True,ChipsAhoy_small,1.62,True,TEST00017,2017-12-01 12:06:04,111.62,163243.945,136,163132.325
-0.05,4000,True,i,53.39,RiceKrispyTreat_small,Toberlorone,2.12,True,RiceKrispyTreat_small,2.07,True,TEST00017,2017-12-01 12:06:04,53.39,163803.76,137,163750.37
0.21,4000,True,u,110.06,Ghiradelli_milk_Almonds,Ghiradelli_milk_Almonds,2.51,True,Milkduds,2.72,True,TEST00017,2017-12-01 12:06:04,110.06,164419.905,138,164309.845
1.57,4000,True,i,64.67,Oreos,100grand_small,0.0,True,Oreos,1.57,True,TEST00017,2017-12-01 12:06:04,64.67,164991.82,139,164927.15
-0.1,4000,True,u,101.005,Fritos,Fritos,0.1,True,100grand_small,0.0,True,TEST00017,2017-12-01 12:06:04,101.005,165598.83,140,165497.825
-1.47,4000,True,u,144.46,RiceKrispyTreat_small,RiceKrispyTreat_small,2.07,True,Jollyranchergreen,0.6,True,TEST00017,2017-12-01 12:06:04,144.46,166248.61,141,166104.15
-0.08,4000,True,i,9.06999999998,Riprolls,Fritos,0.1,True,Riprolls,0.02,True,TEST00017,2017-12-01 12:06:04,9.06999999998,166764.575,142,166755.505
-0.25,4000,True,u,116.775,Ghiradelli_milk,Ghiradelli_milk,0.85,True,Chocolate_mm,0.6,True,TEST00017,2017-12-01 12:06:04,116.775,167388.7,143,167271.925
0.0,4000,True,u,114.205,FlamingCheetos,FlamingCheetos,2.98,True,MrGoodbar,2.98,True,TEST00017,2017-12-01 12:06:04,114.205,168008.72,144,167894.515
-0.17,4000,True,u,50.97,Hersheymilk_several,Hersheymilk_several,1.64,True,Nutterbutter,1.47,True,TEST00017,2017-12-01 12:06:04,50.97,168565.555,145,168514.585
-0.91,4000,False,NaN,4001.055,NaN,MrGoodbar,2.98,True,TeddyGrahamschocolate,2.07,True,TEST00017,2017-12-01 12:06:04,4001.055,173071.26,146,169070.205
0.39,4000,False,NaN,4005.4,NaN,Nutterbutter,1.47,True,CheesyDoritos,1.86,True,TEST00017,2017-12-01 12:06:04,4005.4,177582.305,147,173576.905
0.13,4000,True,i,1459.47,Cheetos,3Musketeers,1.07,True,Cheetos,1.2,True,TEST00017,2017-12-01 12:06:04,1459.47,179547.84,148,178088.37
0.64,4000,True,i,11.96,3Musketeers,Laysclassic,0.43,True,3Musketeers,1.07,True,TEST00017,2017-12-01 12:06:04,11.96,180068.735,149,180056.775
-0.06,4000,True,i,199.93,KitKat_small,FigNewton_small,1.99,True,KitKat_small,1.93,True,TEST00017,2017-12-01 12:06:04,199.93,180777.705,150,180577.775
0.29,4000,True,i,960.97,Hersheymilk_several,Hersheykisses,1.35,True,Hersheymilk_several,1.64,True,TEST00017,2017-12-01 12:06:04,960.97,182247.72,151,181286.75
-0.26,4000,True,i,415.12,FigNewton_small,TootsieRolls,2.25,True,FigNewton_small,1.99,True,TEST00017,2017-12-01 12:06:04,415.12,183171.675,152,182756.555
-0.5,4000,True,i,160.415,Fritos,Chocolate_mm,0.6,True,Fritos,0.1,True,TEST00017,2017-12-01 12:06:04,160.415,183837.52,153,183677.105
-0.04,4000,True,i,6.07499999998,WheatThins,RitzBitz2,2.73,True,WheatThins,2.69,True,TEST00017,2017-12-01 12:06:05,6.07499999998,184352.32,154,184346.245
0.58,4000,True,u,20.72,KitKat_small,KitKat_small,1.93,True,Ghiradelli_milk_Almonds,2.51,True,TEST00017,2017-12-01 12:06:05,20.72,184877.53,155,184856.81
-0.04,4000,True,i,89.395,Ghiradelli_milk_Almonds,FamousAmos_small,2.55,True,Ghiradelli_milk_Almonds,2.51,True,TEST00017,2017-12-01 12:06:05,89.395,185470.495,156,185381.1
-0.33,4000,True,i,726.4,PringlesRed,Sourpatch,1.74,True,PringlesRed,1.41,True,TEST00017,2017-12-01 12:06:05,726.4,186702.27,157,185975.87
-1.39,4000,False,NaN,4005.305,NaN,KitKat_small,1.93,True,Crunch,0.54,True,TEST00017,2017-12-01 12:06:05,4005.305,191215.56,158,187210.255
-0.62,4000,True,i,1084.8,RiceKrispyTreat_small,WheatThins,2.69,True,RiceKrispyTreat_small,2.07,True,TEST00017,2017-12-01 12:06:05,1084.8,192805.25,159,191720.45
0.1,4000,True,i,3120.785,Skittles,Cheezits,1.08,True,Skittles,1.18,True,TEST00017,2017-12-01 12:06:05,3120.785,196434.975,160,193314.19
0.0,4000,True,i,124.02,Toberlorone,Laffytaffyred_one,2.12,True,Toberlorone,2.12,True,TEST00017,2017-12-01 12:06:05,124.02,197066.98,161,196942.96
1.52,4000,False,NaN,4002.8,NaN,starburst,0.12,True,Hersheymilk_several,1.64,True,TEST00017,2017-12-01 12:06:05,4002.8,201574.16,162,197571.36
0.22,4000,True,u,425.96,BabyRuth,BabyRuth,1.38,True,Cheese_PeanutButterCrackers,1.6,True,TEST00017,2017-12-01 12:06:05,425.96,202505.575,163,202079.615
0.03,4000,True,i,549.56,BabyRuth,Hersheykisses,1.35,True,BabyRuth,1.38,True,TEST00017,2017-12-01 12:06:05,549.56,203565.33,164,203015.77
0.61,4000,True,u,23.715,Laffytaffyred_one,Laffytaffyred_one,2.12,True,RitzBitz2,2.73,True,TEST00017,2017-12-01 12:06:05,23.715,204098.1,165,204074.385
0.82,4000,True,u,72.605,Jollyranchergreen,Jollyranchergreen,0.6,True,Keeblerfudgestripes,1.42,True,TEST00017,2017-12-01 12:06:05,72.605,204725.965,166,204653.36
0.49,4000,True,u,43.39,Cheezits,Cheezits,1.08,True,Oreos,1.57,True,TEST00017,2017-12-01 12:06:05,43.39,205278.115,167,205234.725
-0.04,4000,True,u,222.21,Hersheymilk_several,Hersheymilk_several,1.64,True,Cheese_PeanutButterCrackers,1.6,True,TEST00017,2017-12-01 12:06:05,222.21,206025.135,168,205802.925
0.04,4000,True,u,187.8,BabyRuth,BabyRuth,1.38,True,Keeblerfudgestripes,1.42,True,TEST00017,2017-12-01 12:06:05,187.8,206720.105,169,206532.305
-0.01,4000,True,u,47.095,FlamingCheetos,FlamingCheetos,2.98,True,Snickers,2.97,True,TEST00017,2017-12-01 12:06:05,47.095,207276.045,170,207228.95
-0.22,4000,True,u,25.755,SourSkittles,SourSkittles,2.94,True,Milkduds,2.72,True,TEST00017,2017-12-01 12:06:05,25.755,207834.11,171,207808.355
-0.08,4000,True,u,113.67,TeddyGrahamschocolate,TeddyGrahamschocolate,2.07,True,FigNewton_small,1.99,True,TEST00017,2017-12-01 12:06:05,113.67,208500.0,172,208386.33
-0.04,4000,True,u,407.365,Granolabar,Granolabar,1.9,True,CheesyDoritos,1.86,True,TEST00017,2017-12-01 12:06:05,407.365,209412.99,173,209005.625
1.3,4000,True,u,1975.105,PayDay,PayDay,0.88,True,Goldfish,2.18,True,TEST00017,2017-12-01 12:06:05,1975.105,211896.955,174,209921.85
0.07,4000,True,u,10.925,MrsFields,MrsFields,0.18,True,MilkyWay,0.25,True,TEST00017,2017-12-01 12:06:05,10.925,212411.855,175,212400.93
0.53,4000,True,u,275.17,Riprolls,Riprolls,0.02,True,Dots_one,0.55,True,TEST00017,2017-12-01 12:06:05,275.17,213252.81,176,212977.64
0.37,4000,True,u,1123.03,Lollipopred,Lollipopred,1.53,True,Granolabar,1.9,True,TEST00017,2017-12-01 12:06:05,1123.03,214882.83,177,213759.8
-0.1,4000,True,u,98.085,Oreos,Oreos,1.57,True,Nutterbutter,1.47,True,TEST00017,2017-12-01 12:06:05,98.085,215489.715,178,215391.63
-0.25,4000,True,i,263.99,Funyuns_small,Dots_one,0.55,True,Funyuns_small,0.3,True,TEST00017,2017-12-01 12:06:05,263.99,216262.68,179,215998.69
0.0,4000,True,u,68.73,AnimalCrackers,AnimalCrackers,2.98,True,FlamingCheetos,2.98,True,TEST00017,2017-12-01 12:06:05,68.73,216840.425,180,216771.695
0.1,4000,True,i,354.26,starburst,Riprolls,0.02,True,starburst,0.12,True,TEST00017,2017-12-01 12:06:05,354.26,217706.435,181,217352.175
0.65,4000,True,u,471.68,Doritosranch,Doritosranch,1.6,True,TootsieRolls,2.25,True,TEST00017,2017-12-01 12:06:05,471.68,218686.55,182,218214.87
0.82,4000,True,i,1492.705,Ghiradelli_milk_Almonds,Slimjim,1.69,True,Ghiradelli_milk_Almonds,2.51,True,TEST00017,2017-12-01 12:06:05,1492.705,220688.485,183,219195.78
0.28,4000,True,u,1536.6,Chocolate_mm,Chocolate_mm,0.6,True,PayDay,0.88,True,TEST00017,2017-12-01 12:06:05,1536.6,222729.515,184,221192.915
0.82,4000,True,u,1413.485,PeanutMMs,PeanutMMs,0.71,True,Lollipopred,1.53,True,TEST00017,2017-12-01 12:06:05,1413.485,224652.265,185,223238.78
1.49,4000,True,u,152.04,Cheetos,Cheetos,1.2,True,WheatThins,2.69,True,TEST00017,2017-12-01 12:06:05,152.04,225313.24,186,225161.2
-0.23,4000,True,u,197.355,WheatThins,WheatThins,2.69,True,PopTartsStrawberry,2.46,True,TEST00017,2017-12-01 12:06:05,197.355,226016.245,187,225818.89
0.91,4000,True,i,101.81,AnimalCrackers,RiceKrispyTreat_small,2.07,True,AnimalCrackers,2.98,True,TEST00017,2017-12-01 12:06:05,101.81,226627.22,188,226525.41
1.51,4000,True,i,63.455,Slimjim,MrsFields,0.18,True,Slimjim,1.69,True,TEST00017,2017-12-01 12:06:05,63.455,227198.945,189,227135.49
-0.16,4000,True,i,74.04,Milano,Skittles,1.18,True,Milano,1.02,True,TEST00017,2017-12-01 12:06:05,74.04,227782.94,190,227708.9
0.26,4000,True,i,120.285,Laffytaffyred_one,CheesyDoritos,1.86,True,Laffytaffyred_one,2.12,True,TEST00017,2017-12-01 12:06:05,120.285,228416.165,191,228295.88
-0.05,4000,True,i,123.96,Milano,3Musketeers,1.07,True,Milano,1.02,True,TEST00017,2017-12-01 12:06:05,123.96,229044.965,192,228921.005
0.43,4000,True,i,177.98,AnimalCrackers,FamousAmos_small,2.55,True,AnimalCrackers,2.98,True,TEST00017,2017-12-01 12:06:05,177.98,229732.04,193,229554.06
-0.09,4000,True,i,57.525,starburst,Butterfinger,0.21,True,starburst,0.12,True,TEST00017,2017-12-01 12:06:05,57.525,230297.835,194,230240.31
-0.06,4000,True,u,235.095,Granolabar,Granolabar,1.9,True,Reeses,1.84,True,TEST00017,2017-12-01 12:06:05,235.095,231039.02,195,230803.925
-0.1,4000,True,i,113.12,Sourpatch,Reeses,1.84,True,Sourpatch,1.74,True,TEST00017,2017-12-01 12:06:05,113.12,231660.995,196,231547.875
-0.72,4000,True,u,51.125,Milano,Milano,1.02,True,Funyuns_small,0.3,True,TEST00017,2017-12-01 12:06:05,51.125,232220.975,197,232169.85
0.67,4000,True,i,34.025,PayDay,Butterfinger,0.21,True,PayDay,0.88,True,TEST00017,2017-12-01 12:06:05,34.025,232763.95,198,232729.925
-0.85,4000,True,i,178.455,Reeses,WheatThins,2.69,True,Reeses,1.84,True,TEST00017,2017-12-01 12:06:05,178.455,233481.92,199,233303.465
-0.67,4000,True,u,83.165,Ghiradelli_milk,Ghiradelli_milk,0.85,True,MrsFields,0.18,True,TEST00017,2017-12-01 12:06:05,83.165,234070.865,200,233987.7
0.13,4000,True,i,123.87,Laysclassic,Funyuns_small,0.3,True,Laysclassic,0.43,True,TEST00017,2017-12-01 12:06:05,123.87,234703.8,201,234579.93
1.59,4000,True,i,181.18,Reeses,MilkyWay,0.25,True,Reeses,1.84,True,TEST00017,2017-12-01 12:06:05,181.18,235393.835,202,235212.655
0.15,4000,True,u,104.99,Almondjoy,Almondjoy,2.4,True,FamousAmos_small,2.55,True,TEST00017,2017-12-01 12:06:05,104.99,236007.805,203,235902.815
0.24,4000,True,u,99.58,Funyuns_small,Funyuns_small,0.3,True,Crunch,0.54,True,TEST00017,2017-12-01 12:06:05,99.58,236614.76,204,236515.18
-1.58,4000,True,u,91.69,Cheese_PeanutButterCrackers,Cheese_PeanutButterCrackers,1.6,True,Riprolls,0.02,True,TEST00017,2017-12-01 12:06:05,91.69,237214.75,205,237123.06
0.09,4000,True,u,142.9,PopTartsStrawberry,PopTartsStrawberry,2.46,True,FamousAmos_small,2.55,True,TEST00017,2017-12-01 12:06:05,142.9,237865.73,206,237722.83
0.09,4000,True,u,2868.89,Reeses,Reeses,1.84,True,KitKat_small,1.93,True,TEST00017,2017-12-01 12:06:05,2868.89,241238.505,207,238369.615
0.32,4000,True,i,88.19,Cheetos,PayDay,0.88,True,Cheetos,1.2,True,TEST00017,2017-12-01 12:06:05,88.19,241831.495,208,241743.305
-0.33,4000,True,u,35.34,Laysclassic,Laysclassic,0.43,True,Fritos,0.1,True,TEST00017,2017-12-01 12:06:05,35.34,242375.725,209,242340.385
