delta,maxTrialTime,receivedResponse,rsp,rt,selected,stimulus1,stimulus1Bid,stimulus1Loaded,stimulus2,stimulus2Bid,stimulus2Loaded,subjectID,timeEnded,trialDuration,trialEndTime,trialN,trialStartTime
-0.59,4000,True,u,482.16,Sourpatch,Sourpatch,2.2,True,TeddyGrahamschocolate,1.61,True,TEST00017,2017-12-01 12:18:19,482.16,1293.11,0,810.95
-0.05,4000,True,u,62.325,RiceKrispyTreat_small,RiceKrispyTreat_small,0.68,True,PopTartsStrawberry,0.63,True,TEST00017,2017-12-01 12:18:19,62.325,1861.13,1,1798.805
-1.49,4000,True,i,136.74,RiceKrispyTreat_small,Hersheykisses,2.17,True,RiceKrispyTreat_small,0.68,True,TEST00017,2017-12-01 12:18:19,136.74,2502.135,2,2365.395
0.12,4000,False,NaN,4752.315,NaN,TootsieRolls,0.9,True,Crunch,1.02,True,TEST00017,2017-12-01 12:18:19,4752.315,7763.09,3,3010.775
0.5,4000,False,NaN,4505.33,NaN,Twix,2.49,True,AnimalCrackers,2.99,True,TEST00017,2017-12-01 12:18:19,4505.33,13762.935,4,9257.605
0.0,4000,False,NaN,5693.785,NaN,Goldfish,0.04,True,Funyuns_small,0.04,True,TEST00017,2017-12-01 12:18:19,5693.785,20900.695,5,15206.91
-0.14,4000,True,u,629.81,MrGoodbar,MrGoodbar,2.31,True,Chocolate_mm,2.17,True,TEST00017,2017-12-01 12:18:19,629.81,22033.2,6,21403.39
0.27,4000,True,u,14.675,Funyuns_small,Funyuns_small,0.04,True,PeanutMMs,0.31,False,TEST00017,2017-12-01 12:18:19,14.675,22553.005,7,22538.33
-0.64,4000,True,i,142.055,Sourpatch,Toberlorone,2.84,True,Sourpatch,2.2,True,TEST00017,2017-12-01 12:18:19,142.055,23198.155,8,23056.1
0.59,4000,True,i,45.72,TootsieRolls,PeanutMMs,0.31,True,TootsieRolls,0.9,True,TEST00017,2017-12-01 12:18:19,45.72,23748.14,9,23702.42
-1.52,4000,True,i,40.125,starburst,WheatThins,1.74,True,starburst,0.22,True,TEST00017,2017-12-01 12:18:19,40.125,24325.97,10,24285.845
-0.06,4000,True,i,122.45,TeddyGrahamschocolate,Milkduds,1.67,True,TeddyGrahamschocolate,1.61,True,TEST00017,2017-12-01 12:18:19,122.45,24993.06,11,24870.61
1.47,4000,True,i,111.62,Cheetos,BabyRuth,0.19,True,Cheetos,1.66,True,TEST00017,2017-12-01 12:18:19,111.62,25610.08,12,25498.46
0.44,4000,True,u,1156.98,Milano,Milano,1.3,True,WheatThins,1.74,True,TEST00017,2017-12-01 12:18:19,1156.98,27276.01,13,26119.03
0.78,4000,True,i,7.035,KitKat_small,Nutterbutter,0.75,False,KitKat_small,1.53,False,TEST00017,2017-12-01 12:18:19,7.035,27791.775,14,27784.74
-0.27,4000,True,u,162.845,Dots_one,Dots_one,2.35,True,Cheezits,2.08,True,TEST00017,2017-12-01 12:18:19,162.845,28457.955,15,28295.11
0.06,4000,True,u,99.455,FigNewton_small,FigNewton_small,1.68,True,WheatThins,1.74,True,TEST00017,2017-12-01 12:18:19,99.455,29065.86,16,28966.405
-0.5,4000,True,i,216.995,Funyuns_small,Skittles,0.54,True,Funyuns_small,0.04,True,TEST00017,2017-12-01 12:18:19,216.995,29791.895,17,29574.9
-1.44,4000,True,i,57.93,PayDay,Almondjoy,2.96,True,PayDay,1.52,True,TEST00017,2017-12-01 12:18:19,57.93,30353.815,18,30295.885
0.12,4000,True,u,117.51,SourSkittles,SourSkittles,0.88,True,Keeblerfudgestripes,1.0,True,TEST00017,2017-12-01 12:18:19,117.51,30977.835,19,30860.325
0.03,4000,True,u,90.29,Riprolls,Riprolls,2.05,True,Cheezits,2.08,True,TEST00017,2017-12-01 12:18:19,90.29,31575.82,20,31485.53
0.01,4000,True,u,89.87,Laysclassic,Laysclassic,0.96,True,Hersheymilk_several,0.97,True,TEST00017,2017-12-01 12:18:19,89.87,32172.785,21,32082.915
0.67,4000,True,i,120.025,Laffytaffyred_one,CheesyDoritos,0.49,True,Laffytaffyred_one,1.16,True,TEST00017,2017-12-01 12:18:19,120.025,32799.755,22,32679.73
1.43,4000,True,u,98.64,Oreos,Oreos,1.49,True,PringlesRed,2.92,True,TEST00017,2017-12-01 12:18:19,98.64,33404.635,23,33305.995
0.0,4000,True,u,191.19,MrsFields,MrsFields,0.22,True,starburst,0.22,True,TEST00017,2017-12-01 12:18:19,191.19,34100.775,24,33909.585
0.77,4000,True,u,141.095,Cheezits,Cheezits,2.08,True,Reeses,2.85,True,TEST00017,2017-12-01 12:18:19,141.095,34745.685,25,34604.59
-0.84,4000,True,i,14.555,RiceKrispyTreat_small,PayDay,1.52,True,RiceKrispyTreat_small,0.68,True,TEST00017,2017-12-01 12:18:19,14.555,35264.535,26,35249.98
0.11,4000,True,i,478.33,Skittles,100grand_small,0.43,True,Skittles,0.54,True,TEST00017,2017-12-01 12:18:19,478.33,36253.805,27,35775.475
-0.07,4000,True,i,66.09,Reeses,PringlesRed,2.92,True,Reeses,2.85,True,TEST00017,2017-12-01 12:18:19,66.09,36827.36,28,36761.27
-0.09,4000,True,i,210.92,MrsFields,PeanutMMs,0.31,True,MrsFields,0.22,True,TEST00017,2017-12-01 12:18:19,210.92,37557.5,29,37346.58
-0.05,4000,True,i,20.74,Hersheymilk_several,Crunch,1.02,True,Hersheymilk_several,0.97,True,TEST00017,2017-12-01 12:18:19,20.74,38087.375,30,38066.635
0.79,4000,True,i,29.32,Toberlorone,Riprolls,2.05,True,Toberlorone,2.84,True,TEST00017,2017-12-01 12:18:19,29.32,38622.395,31,38593.075
-0.21,4000,True,u,0.964999999997,100grand_small,100grand_small,0.43,True,starburst,0.22,True,TEST00017,2017-12-01 12:18:19,0.964999999997,39128.32,32,39127.355
-0.2,4000,True,i,70.265,3Musketeers,Oreos,1.49,True,3Musketeers,1.29,True,TEST00017,2017-12-01 12:18:19,70.265,39708.32,33,39638.055
-1.45,4000,True,u,37.165,Milkduds,Milkduds,1.67,True,Lollipopred,0.22,True,TEST00017,2017-12-01 12:18:19,37.165,40251.255,34,40214.09
0.83,4000,True,u,160.98,FamousAmos_small,FamousAmos_small,0.56,True,Granolabar,1.39,True,TEST00017,2017-12-01 12:18:19,160.98,40921.345,35,40760.365
0.07,4000,True,u,125.98,CheesyDoritos,CheesyDoritos,0.49,True,FamousAmos_small,0.56,True,TEST00017,2017-12-01 12:18:19,125.98,41554.365,36,41428.385
0.76,4000,True,i,34.81,Milano,Skittles,0.54,True,Milano,1.3,True,TEST00017,2017-12-01 12:18:19,34.81,42098.23,37,42063.42
-0.34,4000,False,NaN,4000.4,NaN,Doritosranch,1.64,True,Milano,1.3,True,TEST00017,2017-12-01 12:18:19,4000.4,46634.91,38,42634.51
-0.09,4000,True,u,199.17,TeddyGrahamschocolate,TeddyGrahamschocolate,1.61,True,PayDay,1.52,True,TEST00017,2017-12-01 12:18:19,199.17,47338.105,39,47138.935
0.25,4000,True,u,183.225,PopTartsStrawberry,PopTartsStrawberry,0.63,True,SourSkittles,0.88,True,TEST00017,2017-12-01 12:18:19,183.225,48030.07,40,47846.845
0.19,4000,True,i,141.945,Oreos,Milano,1.3,True,Oreos,1.49,True,TEST00017,2017-12-01 12:18:19,141.945,48681.04,41,48539.095
-1.54,4000,True,i,37.96,Milano,Toberlorone,2.84,True,Milano,1.3,True,TEST00017,2017-12-01 12:18:19,37.96,49223.03,42,49185.07
0.8,4000,True,u,181.495,WheatThins,WheatThins,1.74,True,Cheese_PeanutButterCrackers,2.54,True,TEST00017,2017-12-01 12:18:19,181.495,49935.835,43,49754.34
-0.79,4000,True,u,151.48,Almondjoy,Almondjoy,2.96,True,Hersheykisses,2.17,True,TEST00017,2017-12-01 12:18:19,151.48,50595.955,44,50444.475
0.72,4000,True,u,9.795,BabyRuth,BabyRuth,0.19,True,Jollyranchergreen,0.91,False,TEST00017,2017-12-01 12:18:19,9.795,51114.715,45,51104.92
-0.31,4000,True,u,5.11500000001,Slimjim,Slimjim,2.7,False,RitzBitz2,2.39,False,TEST00017,2017-12-01 12:18:19,5.11500000001,51627.705,46,51622.59
1.41,4000,True,u,53.525,TootsieRolls,TootsieRolls,0.9,True,MrGoodbar,2.31,True,TEST00017,2017-12-01 12:18:19,53.525,52187.72,47,52134.195
0.14,4000,True,u,5.105,Crunch,Crunch,1.02,True,Laffytaffyred_one,1.16,True,TEST00017,2017-12-01 12:18:19,5.105,52712.655,48,52707.55
-0.02,4000,True,i,495.75,Ghiradelli_milk_Almonds,Ruffles,1.9,True,Ghiradelli_milk_Almonds,1.88,True,TEST00017,2017-12-01 12:18:19,495.75,53715.73,49,53219.98
-0.04,4000,True,u,304.265,FigNewton_small,FigNewton_small,1.68,True,Doritosranch,1.64,True,TEST00017,2017-12-01 12:18:19,304.265,54523.785,50,54219.52
1.6,4000,True,u,59.045,Goldfish,Goldfish,0.04,True,Doritosranch,1.64,True,TEST00017,2017-12-01 12:18:19,59.045,55091.78,51,55032.735
-0.22,4000,True,u,455.875,Toberlorone,Toberlorone,2.84,True,MilkyWay,2.62,True,TEST00017,2017-12-01 12:18:19,455.875,56051.675,52,55595.8
0.05,4000,True,u,185.055,CheesyDoritos,CheesyDoritos,0.49,True,Skittles,0.54,True,TEST00017,2017-12-01 12:18:19,185.055,56741.675,53,56556.62
-0.52,4000,True,i,1770.01,Goldfish,FamousAmos_small,0.56,True,Goldfish,0.04,True,TEST00017,2017-12-01 12:18:19,1770.01,59015.5,54,57245.49
0.78,4000,True,u,984.46,starburst,starburst,0.22,True,Ghiradelli_milk,1.0,True,TEST00017,2017-12-01 12:18:19,984.46,60508.51,55,59524.05
-0.26,4000,True,i,237.48,Riprolls,MrGoodbar,2.31,True,Riprolls,2.05,True,TEST00017,2017-12-01 12:18:19,237.48,61250.355,56,61012.875
-0.35,4000,True,i,29.805,Twix,Toberlorone,2.84,True,Twix,2.49,True,TEST00017,2017-12-01 12:18:19,29.805,61788.45,57,61758.645
-0.86,4000,True,i,199.505,PopTartsStrawberry,Oreos,1.49,True,PopTartsStrawberry,0.63,True,TEST00017,2017-12-01 12:18:19,199.505,62532.425,58,62332.92
0.06,4000,True,u,53.25,TootsieRolls,TootsieRolls,0.9,True,Laysclassic,0.96,True,TEST00017,2017-12-01 12:18:19,53.25,63091.565,59,63038.315
1.41,4000,True,i,168.855,FlamingCheetos,CheesyDoritos,0.49,True,FlamingCheetos,1.9,True,TEST00017,2017-12-01 12:18:19,168.855,63785.37,60,63616.515
-0.06,4000,True,i,69.51,Jollyranchergreen,Hersheymilk_several,0.97,True,Jollyranchergreen,0.91,True,TEST00017,2017-12-01 12:18:19,69.51,64363.345,61,64293.835
-1.46,4000,True,i,73.165,Laffytaffyred_one,MilkyWay,2.62,True,Laffytaffyred_one,1.16,True,TEST00017,2017-12-01 12:18:19,73.165,64941.44,62,64868.275
0.2,4000,True,u,110.99,RiceKrispyTreat_small,RiceKrispyTreat_small,0.68,True,SourSkittles,0.88,True,TEST00017,2017-12-01 12:18:20,110.99,65561.295,63,65450.305
-0.64,4000,True,i,9.575,Keeblerfudgestripes,Doritosranch,1.64,True,Keeblerfudgestripes,1.0,True,TEST00017,2017-12-01 12:18:20,9.575,66076.33,64,66066.755
-1.32,4000,True,i,382.855,SourSkittles,Sourpatch,2.2,True,SourSkittles,0.88,True,TEST00017,2017-12-01 12:18:20,382.855,66966.595,65,66583.74
0.0,4000,True,u,104.62,Keeblerfudgestripes,Keeblerfudgestripes,1.0,True,Ghiradelli_milk,1.0,True,TEST00017,2017-12-01 12:18:20,104.62,67580.205,66,67475.585
-0.57,4000,True,u,290.09,Almondjoy,Almondjoy,2.96,True,RitzBitz2,2.39,True,TEST00017,2017-12-01 12:18:20,290.09,68379.165,67,68089.075
0.75,4000,True,i,310.305,Hersheymilk_several,MrsFields,0.22,True,Hersheymilk_several,0.97,True,TEST00017,2017-12-01 12:18:20,310.305,69194.12,68,68883.815
0.03,4000,True,u,887.01,Chocolate_mm,Chocolate_mm,2.17,True,Sourpatch,2.2,True,TEST00017,2017-12-01 12:18:20,887.01,70590.07,69,69703.06
0.34,4000,False,NaN,4005.315,NaN,Butterfinger,1.79,True,Whatchamacallit,2.13,True,TEST00017,2017-12-01 12:18:20,4005.315,75102.535,70,71097.22
0.1,4000,True,u,369.125,Granolabar,Granolabar,1.39,True,Oreos,1.49,True,TEST00017,2017-12-01 12:18:20,369.125,75977.775,71,75608.65
-0.45,4000,True,u,1928.04,MilkyWay,MilkyWay,2.62,True,Hersheykisses,2.17,True,TEST00017,2017-12-01 12:18:20,1928.04,78415.665,72,76487.625
-0.18,4000,True,i,146.705,Chocolate_mm,Dots_one,2.35,True,Chocolate_mm,2.17,True,TEST00017,2017-12-01 12:18:20,146.705,79066.68,73,78919.975
-0.12,4000,True,i,90.935,Toberlorone,Almondjoy,2.96,True,Toberlorone,2.84,True,TEST00017,2017-12-01 12:18:20,90.935,79662.59,74,79571.655
0.3,4000,True,u,25.145,Ruffles,Ruffles,1.9,True,Sourpatch,2.2,True,TEST00017,2017-12-01 12:18:20,25.145,80196.635,75,80171.49
-0.49,4000,True,u,235.24,Cheese_PeanutButterCrackers,Cheese_PeanutButterCrackers,2.54,True,Riprolls,2.05,True,TEST00017,2017-12-01 12:18:20,235.24,80971.605,76,80736.365
0.78,4000,True,u,118.72,Snickers,Snickers,0.51,True,3Musketeers,1.29,True,TEST00017,2017-12-01 12:18:20,118.72,81599.435,77,81480.715
0.67,4000,True,u,107.09,Doritosranch,Doritosranch,1.64,True,MrGoodbar,2.31,True,TEST00017,2017-12-01 12:18:20,107.09,82215.535,78,82108.445
-0.02,4000,True,u,89.705,FamousAmos_small,FamousAmos_small,0.56,True,Skittles,0.54,True,TEST00017,2017-12-01 12:18:20,89.705,82814.495,79,82724.79
-0.15,4000,True,i,62.975,Sourpatch,Dots_one,2.35,True,Sourpatch,2.2,True,TEST00017,2017-12-01 12:18:20,62.975,83382.265,80,83319.29
1.48,4000,True,u,185.38,PeanutMMs,PeanutMMs,0.31,True,Butterfinger,1.79,True,TEST00017,2017-12-01 12:18:20,185.38,84076.45,81,83891.07
-1.56,4000,True,i,4.16999999998,Crunch,Fritos,2.58,False,Crunch,1.02,True,TEST00017,2017-12-01 12:18:20,4.16999999998,84589.23,82,84585.06
-0.84,4000,True,i,186.9,Funyuns_small,SourSkittles,0.88,True,Funyuns_small,0.04,True,TEST00017,2017-12-01 12:18:20,186.9,85284.465,83,85097.565
0.03,4000,True,u,129.325,BabyRuth,BabyRuth,0.19,True,Lollipopred,0.22,True,TEST00017,2017-12-01 12:18:20,129.325,85918.19,84,85788.865
-0.08,4000,True,i,22.14,Riprolls,Whatchamacallit,2.13,True,Riprolls,2.05,True,TEST00017,2017-12-01 12:18:20,22.14,86443.305,85,86421.165
0.14,4000,True,i,102.745,MrGoodbar,Hersheykisses,2.17,True,MrGoodbar,2.31,True,TEST00017,2017-12-01 12:18:20,102.745,87055.32,86,86952.575
-0.29,4000,True,i,58.1,Lollipopred,Snickers,0.51,True,Lollipopred,0.22,True,TEST00017,2017-12-01 12:18:20,58.1,87618.47,87,87560.37
-0.07,4000,True,i,131.935,PringlesRed,AnimalCrackers,2.99,True,PringlesRed,2.92,True,TEST00017,2017-12-01 12:18:20,131.935,88274.25,88,88142.315
0.18,4000,True,i,39.235,Lollipopred,Funyuns_small,0.04,True,Lollipopred,0.22,True,TEST00017,2017-12-01 12:18:20,39.235,88822.17,89,88782.935
-0.11,4000,True,i,49.805,KitKat_small,Doritosranch,1.64,True,KitKat_small,1.53,True,TEST00017,2017-12-01 12:18:20,49.805,89377.215,90,89327.41
-0.02,4000,True,i,500.33,Ghiradelli_milk,Crunch,1.02,True,Ghiradelli_milk,1.0,True,TEST00017,2017-12-01 12:18:20,500.33,90386.76,91,89886.43
-0.02,4000,True,i,330.73,Cheetos,FigNewton_small,1.68,True,Cheetos,1.66,True,TEST00017,2017-12-01 12:18:20,330.73,91226.06,92,90895.33
-0.54,4000,True,i,1726.935,MrGoodbar,Reeses,2.85,True,MrGoodbar,2.31,True,TEST00017,2017-12-01 12:18:20,1726.935,93458.245,93,91731.31
0.72,4000,True,u,140.1,Milkduds,Milkduds,1.67,True,RitzBitz2,2.39,True,TEST00017,2017-12-01 12:18:20,140.1,94107.005,94,93966.905
-0.1,4000,True,i,107.21,3Musketeers,Granolabar,1.39,True,3Musketeers,1.29,True,TEST00017,2017-12-01 12:18:20,107.21,94723.01,95,94615.8
0.18,4000,True,i,62.59,MrsFields,Goldfish,0.04,True,MrsFields,0.22,True,TEST00017,2017-12-01 12:18:20,62.59,95290.705,96,95228.115
0.79,4000,False,NaN,4002.495,NaN,Whatchamacallit,2.13,True,PringlesRed,2.92,True,TEST00017,2017-12-01 12:18:20,4002.495,99803.355,97,95800.86
0.22,4000,True,i,160.045,PringlesRed,Slimjim,2.7,True,PringlesRed,2.92,True,TEST00017,2017-12-01 12:18:20,160.045,100469.705,98,100309.66
0.31,4000,True,u,50.11,Cheese_PeanutButterCrackers,Cheese_PeanutButterCrackers,2.54,True,Reeses,2.85,True,TEST00017,2017-12-01 12:18:20,50.11,101028.71,99,100978.6
-1.39,4000,True,i,106.29,Snickers,Ruffles,1.9,True,Snickers,0.51,True,TEST00017,2017-12-01 12:18:20,106.29,101642.67,100,101536.38
0.39,4000,True,u,124.35,Oreos,Oreos,1.49,True,Ghiradelli_milk_Almonds,1.88,True,TEST00017,2017-12-01 12:18:20,124.35,102270.645,101,102146.295
-0.03,4000,True,i,6.78999999999,BabyRuth,starburst,0.22,True,BabyRuth,0.19,True,TEST00017,2017-12-01 12:18:20,6.78999999999,102786.415,102,102779.625
-0.13,4000,True,i,218.035,Nutterbutter,SourSkittles,0.88,True,Nutterbutter,0.75,True,TEST00017,2017-12-01 12:18:20,218.035,103508.59,103,103290.555
0.14,4000,True,u,23.675,Reeses,Reeses,2.85,True,AnimalCrackers,2.99,True,TEST00017,2017-12-01 12:18:20,23.675,104036.405,104,104012.73
-0.05,4000,True,u,84.755,ChipsAhoy_small,ChipsAhoy_small,2.54,True,Twix,2.49,True,TEST00017,2017-12-01 12:18:20,84.755,104672.52,105,104587.765
0.0,4000,True,i,6.855,Cheese_PeanutButterCrackers,ChipsAhoy_small,2.54,True,Cheese_PeanutButterCrackers,2.54,True,TEST00017,2017-12-01 12:18:20,6.855,105184.355,106,105177.5
0.09,4000,True,i,76.285,Hersheykisses,Cheezits,2.08,True,Hersheykisses,2.17,True,TEST00017,2017-12-01 12:18:20,76.285,105768.47,107,105692.185
1.46,4000,True,i,62.94,FigNewton_small,MrsFields,0.22,True,FigNewton_small,1.68,True,TEST00017,2017-12-01 12:18:20,62.94,106336.205,108,106273.265
1.42,4000,True,i,69.2,Chocolate_mm,Nutterbutter,0.75,True,Chocolate_mm,2.17,True,TEST00017,2017-12-01 12:18:20,69.2,106916.23,109,106847.03
0.39,4000,True,u,51.095,3Musketeers,3Musketeers,1.29,True,FigNewton_small,1.68,True,TEST00017,2017-12-01 12:18:20,51.095,107480.42,110,107429.325
0.46,4000,True,i,1.39,ChipsAhoy_small,Cheezits,2.08,True,ChipsAhoy_small,2.54,True,TEST00017,2017-12-01 12:18:20,1.39,108016.35,111,108014.96
-0.17,4000,True,u,94.885,Riprolls,Riprolls,2.05,True,Ghiradelli_milk_Almonds,1.88,True,TEST00017,2017-12-01 12:18:20,94.885,108620.445,112,108525.56
-0.32,4000,True,i,140.965,MrsFields,Skittles,0.54,True,MrsFields,0.22,True,TEST00017,2017-12-01 12:18:20,140.965,109269.31,113,109128.345
0.29,4000,True,i,50.97,Hersheymilk_several,RiceKrispyTreat_small,0.68,True,Hersheymilk_several,0.97,True,TEST00017,2017-12-01 12:18:20,50.97,109828.27,114,109777.3
0.38,4000,True,u,18.94,Fritos,Fritos,2.58,True,Almondjoy,2.96,True,TEST00017,2017-12-01 12:18:20,18.94,110384.07,115,110365.13
0.22,4000,True,i,113.265,PayDay,Milano,1.3,True,PayDay,1.52,True,TEST00017,2017-12-01 12:18:20,113.265,111003.055,116,110889.79
-0.14,4000,True,i,190.16,Slimjim,Toberlorone,2.84,True,Slimjim,2.7,True,TEST00017,2017-12-01 12:18:20,190.16,111696.25,117,111506.09
0.03,4000,True,i,141.24,Doritosranch,TeddyGrahamschocolate,1.61,True,Doritosranch,1.64,True,TEST00017,2017-12-01 12:18:20,141.24,112341.19,118,112199.95
0.04,4000,True,u,185.185,Fritos,Fritos,2.58,True,MilkyWay,2.62,True,TEST00017,2017-12-01 12:18:20,185.185,113035.005,119,112849.82
-0.37,4000,True,u,13.815,Ruffles,Ruffles,1.9,True,KitKat_small,1.53,True,TEST00017,2017-12-01 12:18:20,13.815,113558.01,120,113544.195
-0.08,4000,True,u,276.76,MilkyWay,MilkyWay,2.62,True,Cheese_PeanutButterCrackers,2.54,True,TEST00017,2017-12-01 12:18:20,276.76,114338.1,121,114061.34
0.11,4000,True,u,34.88,Butterfinger,Butterfinger,1.79,True,FlamingCheetos,1.9,True,TEST00017,2017-12-01 12:18:20,34.88,114878.855,122,114843.975
-0.53,4000,True,i,219.97,MrsFields,Nutterbutter,0.75,True,MrsFields,0.22,True,TEST00017,2017-12-01 12:18:20,219.97,115601.055,123,115381.085
0.08,4000,True,i,3.32999999999,WheatThins,Cheetos,1.66,True,WheatThins,1.74,True,TEST00017,2017-12-01 12:18:20,3.32999999999,116107.82,124,116104.49
-0.01,4000,True,i,19.415,Cheetos,Milkduds,1.67,True,Cheetos,1.66,True,TEST00017,2017-12-01 12:18:20,19.415,116634.995,125,116615.58
1.46,4000,True,i,1049.1,AnimalCrackers,KitKat_small,1.53,True,AnimalCrackers,2.99,True,TEST00017,2017-12-01 12:18:20,1049.1,118192.87,126,117143.77
-0.7,4000,True,u,61.315,Fritos,Fritos,2.58,True,Ghiradelli_milk_Almonds,1.88,True,TEST00017,2017-12-01 12:18:20,61.315,118759.91,127,118698.595
0.38,4000,True,i,146.05,FlamingCheetos,PayDay,1.52,True,FlamingCheetos,1.9,True,TEST00017,2017-12-01 12:18:20,146.05,119414.87,128,119268.82
-0.01,4000,True,u,264.29,KitKat_small,KitKat_small,1.53,True,PayDay,1.52,True,TEST00017,2017-12-01 12:18:20,264.29,120185.845,129,119921.555
0.01,4000,True,u,267.27,TootsieRolls,TootsieRolls,0.9,True,Jollyranchergreen,0.91,True,TEST00017,2017-12-01 12:18:20,267.27,120961.765,130,120694.495
0.82,4000,True,u,274.2,Chocolate_mm,Chocolate_mm,2.17,True,AnimalCrackers,2.99,True,TEST00017,2017-12-01 12:18:20,274.2,121744.77,131,121470.57
-0.44,4000,True,u,172.725,PopTartsStrawberry,PopTartsStrawberry,0.63,True,BabyRuth,0.19,True,TEST00017,2017-12-01 12:18:20,172.725,122422.745,132,122250.02
1.57,4000,True,i,229.495,TeddyGrahamschocolate,Funyuns_small,0.04,True,TeddyGrahamschocolate,1.61,True,TEST00017,2017-12-01 12:18:20,229.495,123158.695,133,122929.2
-0.12,4000,True,u,89.895,100grand_small,100grand_small,0.43,True,PeanutMMs,0.31,True,TEST00017,2017-12-01 12:18:20,89.895,123756.68,134,123666.785
-0.29,4000,True,i,1170.465,Ghiradelli_milk_Almonds,Hersheykisses,2.17,True,Ghiradelli_milk_Almonds,1.88,True,TEST00017,2017-12-01 12:18:20,1170.465,125431.795,135,124261.33
-0.61,4000,True,i,180.08,Ghiradelli_milk,TeddyGrahamschocolate,1.61,True,Ghiradelli_milk,1.0,True,TEST00017,2017-12-01 12:18:20,180.08,126119.89,136,125939.81
0.18,4000,True,u,204.515,Oreos,Oreos,1.49,True,Milkduds,1.67,True,TEST00017,2017-12-01 12:18:20,204.515,126832.96,137,126628.445
-0.15,4000,True,i,217.475,RitzBitz2,ChipsAhoy_small,2.54,True,RitzBitz2,2.39,True,TEST00017,2017-12-01 12:18:20,217.475,127555.51,138,127338.035
-0.16,4000,True,i,51.08,Keeblerfudgestripes,Laffytaffyred_one,1.16,True,Keeblerfudgestripes,1.0,True,TEST00017,2017-12-01 12:18:20,51.08,128110.515,139,128059.435
-0.15,4000,True,u,157.64,Cheese_PeanutButterCrackers,Cheese_PeanutButterCrackers,2.54,True,RitzBitz2,2.39,True,TEST00017,2017-12-01 12:18:20,157.64,128802.47,140,128644.83
-0.4,4000,True,i,175.435,Granolabar,Butterfinger,1.79,True,Granolabar,1.39,True,TEST00017,2017-12-01 12:18:20,175.435,129486.385,141,129310.95
0.11,4000,True,i,30.875,Ruffles,Butterfinger,1.79,True,Ruffles,1.9,True,TEST00017,2017-12-01 12:18:20,30.875,130021.4,142,129990.525
0.32,4000,True,i,267.45,TeddyGrahamschocolate,3Musketeers,1.29,True,TeddyGrahamschocolate,1.61,True,TEST00017,2017-12-01 12:18:20,267.45,130812.33,143,130544.88
0.03,4000,True,i,125.2,AnimalCrackers,Almondjoy,2.96,True,AnimalCrackers,2.99,True,TEST00017,2017-12-01 12:18:20,125.2,131442.29,144,131317.09
0.09,4000,True,u,215.195,Butterfinger,Butterfinger,1.79,True,Ghiradelli_milk_Almonds,1.88,True,TEST00017,2017-12-01 12:18:21,215.195,132161.23,145,131946.035
0.16,4000,True,u,234.41,Ghiradelli_milk,Ghiradelli_milk,1.0,True,Laffytaffyred_one,1.16,True,TEST00017,2017-12-01 12:18:21,234.41,132900.18,146,132665.77
-0.57,4000,True,u,166.955,PringlesRed,PringlesRed,2.92,True,Dots_one,2.35,True,TEST00017,2017-12-01 12:18:21,166.955,133573.24,147,133406.285
-0.01,4000,True,u,280.87,Milano,Milano,1.3,True,3Musketeers,1.29,True,TEST00017,2017-12-01 12:18:21,280.87,134358.19,148,134077.32
0.12,4000,True,u,186.28,Fritos,Fritos,2.58,True,Slimjim,2.7,True,TEST00017,2017-12-01 12:18:21,186.28,135053.13,149,134866.85
0.37,4000,True,u,155.845,MilkyWay,MilkyWay,2.62,True,AnimalCrackers,2.99,True,TEST00017,2017-12-01 12:18:21,155.845,135713.15,150,135557.305
0.46,4000,True,u,271.535,Lollipopred,Lollipopred,0.22,True,RiceKrispyTreat_small,0.68,True,TEST00017,2017-12-01 12:18:21,271.535,136490.04,151,136218.505
0.33,4000,True,u,261.32,PopTartsStrawberry,PopTartsStrawberry,0.63,True,Laysclassic,0.96,True,TEST00017,2017-12-01 12:18:21,261.32,137257.075,152,136995.755
0.15,4000,True,u,18.89,Funyuns_small,Funyuns_small,0.04,True,BabyRuth,0.19,True,TEST00017,2017-12-01 12:18:21,18.89,137785.02,153,137766.13
0.51,4000,True,i,122.63,Milkduds,Laffytaffyred_one,1.16,True,Milkduds,1.67,True,TEST00017,2017-12-01 12:18:21,122.63,138469.985,154,138347.355
-0.8,4000,False,NaN,6690.345,NaN,Slimjim,2.7,True,Ruffles,1.9,True,TEST00017,2017-12-01 12:18:21,6690.345,146486.32,155,139795.975
0.05,4000,False,NaN,4406.16,NaN,Snickers,0.51,True,FamousAmos_small,0.56,True,TEST00017,2017-12-01 12:18:21,4406.16,152764.155,156,148357.995
0.72,4000,False,NaN,4507.23,NaN,FlamingCheetos,1.9,True,MilkyWay,2.62,True,TEST00017,2017-12-01 12:18:21,4507.23,158765.11,157,154257.88
0.04,4000,False,NaN,5609.72,NaN,Whatchamacallit,2.13,True,Hersheykisses,2.17,True,TEST00017,2017-12-01 12:18:21,5609.72,165481.82,158,159872.1
0.02,4000,False,NaN,4999.9,NaN,CheesyDoritos,0.49,True,Snickers,0.51,True,TEST00017,2017-12-01 12:18:21,4999.9,171763.32,159,166763.42
0.53,4000,False,NaN,4502.65,NaN,Chocolate_mm,2.17,True,Slimjim,2.7,True,TEST00017,2017-12-01 12:18:21,4502.65,177764.56,160,173261.91
-1.46,4000,False,NaN,5000.86,NaN,Reeses,2.85,True,Granolabar,1.39,True,TEST00017,2017-12-01 12:18:21,5000.86,183764.435,161,178763.575
-0.07,4000,False,NaN,4543.32,NaN,Sourpatch,2.2,True,Whatchamacallit,2.13,True,TEST00017,2017-12-01 12:18:21,4543.32,189764.36,162,185221.04
-0.47,4000,False,NaN,6550.89,NaN,Laysclassic,0.96,True,CheesyDoritos,0.49,True,TEST00017,2017-12-01 12:18:21,6550.89,197763.765,163,191212.875
0.75,4000,False,NaN,6636.13,NaN,Butterfinger,1.79,True,ChipsAhoy_small,2.54,True,TEST00017,2017-12-01 12:18:21,6636.13,205399.765,164,198763.635
-1.51,4000,False,NaN,4562.415,NaN,Riprolls,2.05,True,Skittles,0.54,True,TEST00017,2017-12-01 12:18:21,4562.415,211764.91,165,207202.495
0.59,4000,False,NaN,5214.61,NaN,100grand_small,0.43,True,Crunch,1.02,True,TEST00017,2017-12-01 12:18:21,5214.61,217978.14,166,212763.53
-0.38,4000,False,NaN,7431.29,NaN,PringlesRed,2.92,True,ChipsAhoy_small,2.54,True,TEST00017,2017-12-01 12:18:21,7431.29,226194.915,167,218763.625
-0.74,4000,False,NaN,5722.915,NaN,Laysclassic,0.96,True,Lollipopred,0.22,True,TEST00017,2017-12-01 12:18:21,5722.915,232486.205,168,226763.29
0.25,4000,False,NaN,5001.64,NaN,Jollyranchergreen,0.91,True,Laffytaffyred_one,1.16,True,TEST00017,2017-12-01 12:18:21,5001.64,238765.025,169,233763.385
0.64,4000,False,NaN,5001.335,NaN,Crunch,1.02,True,Cheetos,1.66,True,TEST00017,2017-12-01 12:18:21,5001.335,244764.71,170,239763.375
0.22,4000,False,NaN,4942.14,NaN,RiceKrispyTreat_small,0.68,True,TootsieRolls,0.9,True,TEST00017,2017-12-01 12:18:21,4942.14,250817.0,171,245874.86
0.46,4000,False,NaN,5000.855,NaN,Snickers,0.51,True,Hersheymilk_several,0.97,True,TEST00017,2017-12-01 12:18:21,5000.855,256764.455,172,251763.6
1.43,4000,False,NaN,5097.68,NaN,Laysclassic,0.96,True,RitzBitz2,2.39,True,TEST00017,2017-12-01 12:18:21,5097.68,263354.04,173,258256.36
-0.69,4000,False,NaN,7321.845,NaN,Dots_one,2.35,True,Cheetos,1.66,True,TEST00017,2017-12-01 12:18:21,7321.845,272085.28,174,264763.435
0.04,4000,False,NaN,4664.97,NaN,Laysclassic,0.96,True,Keeblerfudgestripes,1.0,True,TEST00017,2017-12-01 12:18:21,4664.97,277765.445,175,273100.475
-0.16,4000,False,NaN,4546.7,NaN,Jollyranchergreen,0.91,True,Nutterbutter,0.75,True,TEST00017,2017-12-01 12:18:21,4546.7,283764.855,176,279218.155
0.09,4000,False,NaN,6803.55,NaN,Twix,2.49,True,Fritos,2.58,True,TEST00017,2017-12-01 12:18:21,6803.55,292027.665,177,285224.115
0.0,4000,False,NaN,4821.47,NaN,Ruffles,1.9,True,FlamingCheetos,1.9,True,TEST00017,2017-12-01 12:18:21,4821.47,297765.645,178,292944.175
-0.12,4000,False,NaN,5000.935,NaN,Nutterbutter,0.75,True,PopTartsStrawberry,0.63,True,TEST00017,2017-12-01 12:18:21,5000.935,303764.33,179,298763.395
0.1,4000,False,NaN,4504.06,NaN,RitzBitz2,2.39,True,Twix,2.49,True,TEST00017,2017-12-01 12:18:21,4504.06,309765.755,180,305261.695
-0.16,4000,False,NaN,5001.155,NaN,FigNewton_small,1.68,True,PayDay,1.52,True,TEST00017,2017-12-01 12:18:21,5001.155,315764.55,181,310763.395
-0.66,4000,False,NaN,5005.78,NaN,SourSkittles,0.88,True,starburst,0.22,True,TEST00017,2017-12-01 12:18:21,5005.78,321769.145,182,316763.365
0.14,4000,False,NaN,4728.705,NaN,Granolabar,1.39,True,KitKat_small,1.53,True,TEST00017,2017-12-01 12:18:21,4728.705,327764.38,183,323035.675
0.27,4000,False,NaN,4546.31,NaN,FlamingCheetos,1.9,True,Chocolate_mm,2.17,True,TEST00017,2017-12-01 12:18:21,4546.31,333765.25,184,329218.94
-0.2,4000,False,NaN,5000.65,NaN,Snickers,0.51,True,PeanutMMs,0.31,True,TEST00017,2017-12-01 12:18:21,5000.65,339763.9,185,334763.25
-1.54,4000,False,NaN,5635.835,NaN,Cheese_PeanutButterCrackers,2.54,True,Ghiradelli_milk,1.0,True,TEST00017,2017-12-01 12:18:21,5635.835,346844.735,186,341208.9
0.07,4000,False,NaN,4744.59,NaN,Milkduds,1.67,True,WheatThins,1.74,True,TEST00017,2017-12-01 12:18:21,4744.59,352940.07,187,348195.48
-0.34,4000,False,NaN,6514.025,NaN,FamousAmos_small,0.56,True,starburst,0.22,True,TEST00017,2017-12-01 12:18:21,6514.025,360680.74,188,354166.715
0.86,4000,False,NaN,4999.41,NaN,Goldfish,0.04,True,TootsieRolls,0.9,True,TEST00017,2017-12-01 12:18:21,4999.41,366763.11,189,361763.7
0.25,4000,False,NaN,4630.05,NaN,Nutterbutter,0.75,True,Ghiradelli_milk,1.0,True,TEST00017,2017-12-01 12:18:21,4630.05,372831.26,190,368201.21
0.48,4000,False,NaN,4537.705,NaN,100grand_small,0.43,True,Jollyranchergreen,0.91,True,TEST00017,2017-12-01 12:18:21,4537.705,378764.39,191,374226.685
-0.27,4000,False,NaN,4751.915,NaN,Cheetos,1.66,True,Granolabar,1.39,True,TEST00017,2017-12-01 12:18:21,4751.915,384963.63,192,380211.715
0.18,4000,False,NaN,5368.63,NaN,Goldfish,0.04,True,Lollipopred,0.22,True,TEST00017,2017-12-01 12:18:21,5368.63,391148.34,193,385779.71
-0.45,4000,False,NaN,4768.54,NaN,Fritos,2.58,True,Whatchamacallit,2.13,True,TEST00017,2017-12-01 12:18:21,4768.54,396835.72,194,392067.18
-1.54,4000,False,NaN,7309.66,NaN,ChipsAhoy_small,2.54,True,Keeblerfudgestripes,1.0,True,TEST00017,2017-12-01 12:18:21,7309.66,405073.065,195,397763.405
-0.21,4000,False,NaN,5000.91,NaN,WheatThins,1.74,True,KitKat_small,1.53,True,TEST00017,2017-12-01 12:18:21,5000.91,410764.165,196,405763.255
0.3,4000,False,NaN,4999.675,NaN,BabyRuth,0.19,True,CheesyDoritos,0.49,True,TEST00017,2017-12-01 12:18:21,4999.675,416762.95,197,411763.275
1.41,4000,False,NaN,6768.66,NaN,3Musketeers,1.29,True,Slimjim,2.7,True,TEST00017,2017-12-01 12:18:21,6768.66,425015.785,198,418247.125
-1.52,4000,False,NaN,4665.6,NaN,Twix,2.49,True,Hersheymilk_several,0.97,True,TEST00017,2017-12-01 12:18:21,4665.6,430766.07,199,426100.47
-1.5,4000,False,NaN,5463.015,NaN,Whatchamacallit,2.13,True,PopTartsStrawberry,0.63,True,TEST00017,2017-12-01 12:18:21,5463.015,437682.895,200,432219.88
-0.04,4000,False,NaN,4999.75,NaN,Dots_one,2.35,True,MrGoodbar,2.31,True,TEST00017,2017-12-01 12:18:21,4999.75,443763.045,201,438763.295
-1.52,4000,False,NaN,6138.67,NaN,Cheezits,2.08,True,FamousAmos_small,0.56,True,TEST00017,2017-12-01 12:18:21,6138.67,450998.6,202,444859.93
-0.39,4000,False,NaN,4638.155,NaN,100grand_small,0.43,True,Goldfish,0.04,True,TEST00017,2017-12-01 12:18:21,4638.155,456767.525,203,452129.37
0.69,4000,False,NaN,4682.455,NaN,PeanutMMs,0.31,True,Keeblerfudgestripes,1.0,True,TEST00017,2017-12-01 12:18:21,4682.455,462802.965,204,458120.51
-0.11,4000,False,NaN,4663.815,NaN,Almondjoy,2.96,True,Reeses,2.85,True,TEST00017,2017-12-01 12:18:21,4663.815,468764.515,205,464100.7
1.45,4000,False,NaN,4999.655,NaN,100grand_small,0.43,True,Ghiradelli_milk_Almonds,1.88,True,TEST00017,2017-12-01 12:18:21,4999.655,474763.1,206,469763.445
-0.18,4000,False,NaN,5001.99,NaN,Cheezits,2.08,True,FlamingCheetos,1.9,True,TEST00017,2017-12-01 12:18:21,5001.99,480765.26,207,475763.27
0.81,4000,False,NaN,5001.01,NaN,FigNewton_small,1.68,True,Twix,2.49,True,TEST00017,2017-12-01 12:18:21,5001.01,486764.085,208,481763.075
-1.44,4000,False,NaN,4910.42,NaN,Dots_one,2.35,True,Jollyranchergreen,0.91,True,TEST00017,2017-12-01 12:18:21,4910.42,492764.615,209,487854.195
