date,delta,maxTrialTime,receivedResponse,rsp,rt,selected,stimulus1,stimulus1Bid,stimulus1Loaded,stimulus2,stimulus2Bid,stimulus2Loaded,subjectID,trialDuration,trialEndTime,trialN,trialStartTime
2018-01-03 12:57:44,3.95,4000,True,u,1177.045,Almondjoy,Almondjoy,0.34,True,Milkduds,4.29,True,MDMMT0006,1177.045,1504.8,0,327.755
2018-01-03 12:57:44,0.03,4000,True,i,142.955,Fritos,PringlesRed,2.39,True,Fritos,2.42,True,MDMMT0006,142.955,2158.595,1,2015.64
2018-01-03 12:57:44,1.41,4000,True,u,31.94,Cheetos,Cheetos,8.54,True,PayDay,9.95,True,MDMMT0006,31.94,2697.52,2,2665.58
2018-01-03 12:57:44,-0.23,4000,True,i,24.385,WheatThins,Hersheymilk_several,0.32,True,WheatThins,0.09,False,MDMMT0006,24.385,3281.5,3,3257.115
2018-01-03 12:57:44,-4.26,4000,True,i,57.76,RiceKrispyTreat_small,starburst,6.76,True,RiceKrispyTreat_small,2.5,True,MDMMT0006,57.76,3849.615,4,3791.855
2018-01-03 12:57:44,-3.78,4000,True,i,30.675,Skittles,TootsieRolls,9.17,True,Skittles,5.39,True,MDMMT0006,30.675,4385.49,5,4354.815
2018-01-03 12:57:44,1.3,4000,True,i,4.51,Nutterbutter,Hersheymilk_several,0.32,True,Nutterbutter,1.62,False,MDMMT0006,4.51,4893.425,6,4888.915
2018-01-03 12:57:44,3.98,4000,True,u,2.485,Cheezits,Cheezits,5.84,False,CheesyDoritos,9.82,False,MDMMT0006,2.485,5403.495,7,5401.01
2018-01-03 12:57:44,-0.19,4000,True,i,479.305,BabyRuth,Twix,2.37,True,BabyRuth,2.18,True,MDMMT0006,479.305,6390.54,8,5911.235
2018-01-03 12:57:44,-0.73,4000,True,i,86.6,Laysclassic,KitKat_small,6.1,True,Laysclassic,5.37,True,MDMMT0006,86.6,6983.56,9,6896.96
2018-01-03 12:57:44,0.59,4000,True,i,118.51,Nutterbutter,Ruffles,1.03,True,Nutterbutter,1.62,True,MDMMT0006,118.51,7607.495,10,7488.985
2018-01-03 12:57:44,-0.44,4000,True,i,65.665,PeanutMMs,ChipsAhoy_small,6.65,True,PeanutMMs,6.21,True,MDMMT0006,65.665,8181.465,11,8115.8
2018-01-03 12:57:44,-1.6,4000,True,u,288.04,Slimjim,Slimjim,5.1,True,MilkyWay,3.5,True,MDMMT0006,288.04,8978.455,12,8690.415
2018-01-03 12:57:44,0.5,4000,True,u,722.275,RiceKrispyTreat_small,RiceKrispyTreat_small,2.5,True,FamousAmos_small,3.0,True,MDMMT0006,722.275,10207.35,13,9485.075
2018-01-03 12:57:44,1.39,4000,True,i,41.01,TeddyGrahamschocolate,starburst,6.76,True,TeddyGrahamschocolate,8.15,True,MDMMT0006,41.01,10752.3,14,10711.29
2018-01-03 12:57:44,-9.18,4000,True,u,519.49,Toberlorone,Toberlorone,10.0,True,Funyuns_small,0.82,True,MDMMT0006,519.49,11814.295,15,11294.805
2018-01-03 12:57:44,0.48,4000,True,u,466.17,Laffytaffyred_one,Laffytaffyred_one,5.48,True,Hersheykisses,5.96,True,MDMMT0006,466.17,12785.27,16,12319.1
2018-01-03 12:57:44,2.99,4000,True,u,129.83,Oreos,Oreos,5.96,True,Chocolate_mm,8.95,True,MDMMT0006,129.83,13422.395,17,13292.565
2018-01-03 12:57:44,-0.9,4000,True,i,74.44,Fritos,Crunch,3.32,True,Fritos,2.42,True,MDMMT0006,74.44,14000.35,18,13925.91
2018-01-03 12:57:44,1.5,4000,True,u,36.92,BabyRuth,BabyRuth,2.18,True,Dots_one,3.68,True,MDMMT0006,36.92,14543.125,19,14506.205
2018-01-03 12:57:44,-3.78,4000,False,NaN,4004.41,NaN,Hersheykisses,5.96,True,BabyRuth,2.18,True,MDMMT0006,4004.41,19096.595,20,15092.185
2018-01-03 12:57:44,-5.22,4000,True,u,3093.555,Cheetos,Cheetos,8.54,True,Crunch,3.32,True,MDMMT0006,3093.555,22695.735,21,19602.18
2018-01-03 12:57:44,0.53,4000,True,u,49.345,MrGoodbar,MrGoodbar,2.34,True,PopTartsStrawberry,2.87,True,MDMMT0006,49.345,23255.545,22,23206.2
2018-01-03 12:57:44,0.22,4000,True,i,134.17,TootsieRolls,Chocolate_mm,8.95,True,TootsieRolls,9.17,True,MDMMT0006,134.17,23922.65,23,23788.48
2018-01-03 12:57:44,3.14,4000,True,i,161.645,Cheese_PeanutButterCrackers,starburst,6.76,True,Cheese_PeanutButterCrackers,9.9,True,MDMMT0006,161.645,24592.59,24,24430.945
2018-01-03 12:57:44,0.82,4000,True,u,350.32,Skittles,Skittles,5.39,True,PeanutMMs,6.21,True,MDMMT0006,350.32,25448.415,25,25098.095
2018-01-03 12:57:44,4.97,4000,True,u,29.815,Reeses,Reeses,3.26,True,3Musketeers,8.23,True,MDMMT0006,29.815,25981.345,26,25951.53
2018-01-03 12:57:44,-0.25,4000,True,u,51.825,Lollipopred,Lollipopred,2.67,True,Fritos,2.42,True,MDMMT0006,51.825,26589.5,27,26537.675
2018-01-03 12:57:44,-3.03,4000,True,u,59.965,TeddyGrahamschocolate,TeddyGrahamschocolate,8.15,True,Snickers,5.12,True,MDMMT0006,59.965,27156.495,28,27096.53
2018-01-03 12:57:44,1.66,4000,True,u,151.705,Whatchamacallit,Whatchamacallit,1.84,True,MilkyWay,3.5,True,MDMMT0006,151.705,27815.505,29,27663.8
2018-01-03 12:57:44,0.88,4000,True,i,244.68,AnimalCrackers,starburst,6.76,True,AnimalCrackers,7.64,True,MDMMT0006,244.68,28564.41,30,28319.73
2018-01-03 12:57:44,-0.17,4000,True,u,174.055,Keeblerfudgestripes,Keeblerfudgestripes,4.18,True,RitzBitz2,4.01,True,MDMMT0006,174.055,29242.295,31,29068.24
2018-01-03 12:57:44,-0.22,4000,True,i,173.97,Funyuns_small,Ghiradelli_milk_Almonds,1.04,True,Funyuns_small,0.82,True,MDMMT0006,173.97,29921.38,32,29747.41
2018-01-03 12:57:44,-0.92,4000,True,u,14.785,Slimjim,Slimjim,5.1,True,Keeblerfudgestripes,4.18,True,MDMMT0006,14.785,30441.32,33,30426.535
2018-01-03 12:57:44,-3.8,4000,True,i,368.4,Laffytaffyred_one,FigNewton_small,9.28,True,Laffytaffyred_one,5.48,True,MDMMT0006,368.4,31317.32,34,30948.92
2018-01-03 12:57:44,-0.08,4000,True,u,154.005,WheatThins,WheatThins,0.09,True,Riprolls,0.01,True,MDMMT0006,154.005,31979.28,35,31825.275
2018-01-03 12:57:44,1.38,4000,True,u,16.22,Ghiradelli_milk_Almonds,Ghiradelli_milk_Almonds,1.04,True,Fritos,2.42,True,MDMMT0006,16.22,32503.185,36,32486.965
2018-01-03 12:57:44,-0.33,4000,True,u,128.71,RitzBitz2,RitzBitz2,4.01,True,Dots_one,3.68,True,MDMMT0006,128.71,33196.205,37,33067.495
2018-01-03 12:57:44,-2.18,4000,True,u,573.245,RiceKrispyTreat_small,RiceKrispyTreat_small,2.5,True,Hersheymilk_several,0.32,True,MDMMT0006,573.245,34273.175,38,33699.93
2018-01-03 12:57:44,6.46,4000,True,i,244.665,Toberlorone,Ghiradelli_milk,3.54,True,Toberlorone,10.0,True,MDMMT0006,244.665,35024.17,39,34779.505
2018-01-03 12:57:44,9.79,4000,True,i,154.98,SourSkittles,Jollyranchergreen,0.21,True,SourSkittles,10.0,True,MDMMT0006,154.98,35683.115,40,35528.135
2018-01-03 12:57:44,0.08,4000,True,u,93.095,MrsFields,MrsFields,3.46,True,Ghiradelli_milk,3.54,True,MDMMT0006,93.095,36283.045,41,36189.95
2018-01-03 12:57:44,6.17,4000,True,u,107.315,Doritosranch,Doritosranch,3.78,True,PayDay,9.95,True,MDMMT0006,107.315,36895.06,42,36787.745
2018-01-03 12:57:44,-1.58,4000,True,u,53.31,Snickers,Snickers,5.12,True,Ghiradelli_milk,3.54,True,MDMMT0006,53.31,37455.995,43,37402.685
2018-01-03 12:57:44,-1.84,4000,True,u,472.88,MrsFields,MrsFields,3.46,True,Nutterbutter,1.62,True,MDMMT0006,472.88,38456.365,44,37983.485
2018-01-03 12:57:44,0.53,4000,True,i,362.705,Sourpatch,starburst,6.76,True,Sourpatch,7.29,True,MDMMT0006,362.705,39326.99,45,38964.285
2018-01-03 12:57:44,0.8,4000,True,i,127.975,Whatchamacallit,Ghiradelli_milk_Almonds,1.04,True,Whatchamacallit,1.84,True,MDMMT0006,127.975,39962.92,46,39834.945
2018-01-03 12:57:44,-0.08,4000,True,u,472.71,100grand_small,100grand_small,3.54,True,MrsFields,3.46,True,MDMMT0006,472.71,40940.155,47,40467.445
2018-01-03 12:57:44,-0.45,4000,True,i,63.2,Skittles,Cheezits,5.84,True,Skittles,5.39,True,MDMMT0006,63.2,41511.575,48,41448.375
2018-01-03 12:57:44,-2.0,4000,True,u,55.85,MrGoodbar,MrGoodbar,2.34,True,Almondjoy,0.34,True,MDMMT0006,55.85,42096.34,49,42040.49
2018-01-03 12:57:44,-0.61,4000,True,u,611.385,FlamingCheetos,FlamingCheetos,4.15,True,Ghiradelli_milk,3.54,True,MDMMT0006,611.385,43214.765,50,42603.38
2018-01-03 12:57:44,5.15,4000,True,i,577.565,TeddyGrahamschocolate,FamousAmos_small,3.0,True,TeddyGrahamschocolate,8.15,True,MDMMT0006,577.565,44306.705,51,43729.14
2018-01-03 12:57:44,0.06,4000,True,i,20.51,Crunch,Reeses,3.26,True,Crunch,3.32,True,MDMMT0006,20.51,44834.525,52,44814.015
2018-01-03 12:57:44,-1.05,4000,True,u,423.485,Lollipopred,Lollipopred,2.67,True,Nutterbutter,1.62,True,MDMMT0006,423.485,45818.035,53,45394.55
2018-01-03 12:57:44,0.61,4000,True,u,3252.35,Jollyranchergreen,Jollyranchergreen,0.21,True,Funyuns_small,0.82,True,MDMMT0006,3252.35,49575.92,54,46323.57
2018-01-03 12:57:44,-1.17,4000,True,u,303.285,ChipsAhoy_small,ChipsAhoy_small,6.65,True,Laffytaffyred_one,5.48,True,MDMMT0006,303.285,50387.925,55,50084.64
2018-01-03 12:57:44,-2.09,4000,True,i,610.04,RitzBitz2,KitKat_small,6.1,True,RitzBitz2,4.01,True,MDMMT0006,610.04,51501.85,56,50891.81
2018-01-03 12:57:44,-0.22,4000,True,u,47.955,Butterfinger,Butterfinger,5.34,True,Snickers,5.12,True,MDMMT0006,47.955,52053.77,57,52005.815
2018-01-03 12:57:44,4.23,4000,True,i,69.345,ChipsAhoy_small,Fritos,2.42,True,ChipsAhoy_small,6.65,True,MDMMT0006,69.345,52655.635,58,52586.29
2018-01-03 12:57:44,0.04,4000,True,u,1159.035,MrsFields,MrsFields,3.46,True,MilkyWay,3.5,True,MDMMT0006,1159.035,54325.745,59,53166.71
2018-01-03 12:57:44,7.82,4000,True,i,1432.3,SourSkittles,BabyRuth,2.18,True,SourSkittles,10.0,True,MDMMT0006,1432.3,56261.535,60,54829.235
2018-01-03 12:57:44,-0.08,4000,True,u,7.285,Fritos,Fritos,2.42,True,MrGoodbar,2.34,True,MDMMT0006,7.285,56772.445,61,56765.16
2018-01-03 12:57:44,1.02,4000,True,u,30.47,Riprolls,Riprolls,0.01,True,Ruffles,1.03,True,MDMMT0006,30.47,57306.465,62,57275.995
2018-01-03 12:57:44,-3.07,4000,True,i,193.18,PeanutMMs,FigNewton_small,9.28,True,PeanutMMs,6.21,True,MDMMT0006,193.18,58049.45,63,57856.27
2018-01-03 12:57:44,1.97,4000,True,i,20.545,FamousAmos_small,Ruffles,1.03,True,FamousAmos_small,3.0,True,MDMMT0006,20.545,58574.535,64,58553.99
2018-01-03 12:57:44,-3.0,4000,True,u,108.495,Sourpatch,Sourpatch,7.29,True,Milkduds,4.29,True,MDMMT0006,108.495,59189.51,65,59081.015
2018-01-03 12:57:44,-7.66,4000,True,u,45.365,SourSkittles,SourSkittles,10.0,True,MrGoodbar,2.34,True,MDMMT0006,45.365,59741.405,66,59696.04
2018-01-03 12:57:44,-9.91,4000,True,i,256.73,WheatThins,Toberlorone,10.0,True,WheatThins,0.09,True,MDMMT0006,256.73,60533.25,67,60276.52
2018-01-03 12:57:44,0.27,4000,True,i,75.41,Nutterbutter,Milano,1.35,True,Nutterbutter,1.62,True,MDMMT0006,75.41,61112.265,68,61036.855
2018-01-03 12:57:44,-1.32,4000,True,u,1616.645,Slimjim,Slimjim,5.1,True,Doritosranch,3.78,True,MDMMT0006,1616.645,63238.19,69,61621.545
2018-01-03 12:57:44,2.05,4000,False,NaN,4398.735,NaN,Funyuns_small,0.82,True,PopTartsStrawberry,2.87,True,MDMMT0006,4398.735,68140.37,70,63741.635
2018-01-03 12:57:44,0.95,4000,False,NaN,4998.645,NaN,FlamingCheetos,4.15,True,Slimjim,5.1,True,MDMMT0006,4998.645,74138.58,71,69139.935
2018-01-03 12:57:44,-0.9,4000,False,NaN,4996.485,NaN,Cheetos,8.54,True,AnimalCrackers,7.64,True,MDMMT0006,4996.485,80136.85,72,75140.365
2018-01-03 12:57:45,-1.14,4000,False,NaN,4996.665,NaN,Milano,1.35,True,Jollyranchergreen,0.21,True,MDMMT0006,4996.665,86138.695,73,81142.03
2018-01-03 12:57:45,1.67,4000,False,NaN,5002.525,NaN,3Musketeers,8.23,True,Cheese_PeanutButterCrackers,9.9,True,MDMMT0006,5002.525,92139.935,74,87137.41
2018-01-03 12:57:45,-0.17,4000,False,NaN,5002.49,NaN,Lollipopred,2.67,True,RiceKrispyTreat_small,2.5,True,MDMMT0006,5002.49,98141.29,75,93138.8
2018-01-03 12:57:45,2.33,4000,False,NaN,4996.445,NaN,Almondjoy,0.34,True,Lollipopred,2.67,True,MDMMT0006,4996.445,104136.655,76,99140.21
2018-01-03 12:57:45,-2.21,4000,False,NaN,4997.5,NaN,Fritos,2.42,True,Jollyranchergreen,0.21,True,MDMMT0006,4997.5,110138.205,77,105140.705
2018-01-03 12:57:45,-0.69,4000,False,NaN,5002.24,NaN,ChipsAhoy_small,6.65,True,Oreos,5.96,True,MDMMT0006,5002.24,116141.025,78,111138.785
2018-01-03 12:57:45,-1.44,4000,False,NaN,5002.7,NaN,Doritosranch,3.78,True,MrGoodbar,2.34,True,MDMMT0006,5002.7,122140.885,79,117138.185
2018-01-03 12:57:45,-1.36,4000,False,NaN,5000.33,NaN,PringlesRed,2.39,True,Ruffles,1.03,True,MDMMT0006,5000.33,128139.745,80,123139.415
2018-01-03 12:57:45,-2.36,4000,False,NaN,4997.48,NaN,Twix,2.37,True,Riprolls,0.01,True,MDMMT0006,4997.48,134137.735,81,129140.255
2018-01-03 12:57:45,-0.14,4000,False,NaN,4999.425,NaN,Laffytaffyred_one,5.48,True,Butterfinger,5.34,True,MDMMT0006,4999.425,140139.18,82,135139.755
2018-01-03 12:57:45,-4.0,4000,False,NaN,5002.5,NaN,RitzBitz2,4.01,True,Riprolls,0.01,True,MDMMT0006,5002.5,146140.395,83,141137.895
2018-01-03 12:57:45,3.55,4000,False,NaN,4998.44,NaN,Whatchamacallit,1.84,True,Skittles,5.39,True,MDMMT0006,4998.44,152137.565,84,147139.125
2018-01-03 12:57:45,0.11,4000,False,NaN,4999.785,NaN,PringlesRed,2.39,True,RiceKrispyTreat_small,2.5,True,MDMMT0006,4999.785,158140.09,85,153140.305
2018-01-03 12:57:45,-6.28,4000,False,NaN,5000.86,NaN,CheesyDoritos,9.82,True,100grand_small,3.54,True,MDMMT0006,5000.86,164138.32,86,159137.46
2018-01-03 12:57:45,-3.94,4000,False,NaN,5002.76,NaN,FlamingCheetos,4.15,True,Jollyranchergreen,0.21,True,MDMMT0006,5002.76,170139.955,87,165137.195
2018-01-03 12:57:45,0.45,4000,True,u,3104.59,PopTartsStrawberry,PopTartsStrawberry,2.87,True,Crunch,3.32,True,MDMMT0006,3104.59,174243.42,88,171138.83
2018-01-03 12:57:45,-3.99,4000,False,NaN,4382.035,NaN,PayDay,9.95,True,Oreos,5.96,True,MDMMT0006,4382.035,179136.345,89,174754.31
2018-01-03 12:57:45,-0.61,4000,False,NaN,4996.595,NaN,Milkduds,4.29,True,Dots_one,3.68,True,MDMMT0006,4996.595,185137.525,90,180140.93
2018-01-03 12:57:45,3.86,4000,False,NaN,5001.525,NaN,Hersheymilk_several,0.32,True,Keeblerfudgestripes,4.18,True,MDMMT0006,5001.525,191138.8,91,186137.275
2018-01-03 12:57:45,-1.55,4000,False,NaN,5002.69,NaN,Twix,2.37,True,Funyuns_small,0.82,True,MDMMT0006,5002.69,197140.2,92,192137.51
2018-01-03 12:57:45,-0.87,4000,False,NaN,5002.83,NaN,CheesyDoritos,9.82,True,Chocolate_mm,8.95,True,MDMMT0006,5002.83,203141.4,93,198138.57
2018-01-03 12:57:45,4.16,4000,False,NaN,4997.035,NaN,Cheezits,5.84,True,SourSkittles,10.0,True,MDMMT0006,4997.035,209137.05,94,204140.015
2018-01-03 12:57:45,-3.07,4000,False,NaN,4997.54,NaN,TootsieRolls,9.17,True,KitKat_small,6.1,True,MDMMT0006,4997.54,215139.355,95,210141.815
2018-01-03 12:57:45,0.87,4000,False,NaN,5002.605,NaN,PringlesRed,2.39,True,Reeses,3.26,True,MDMMT0006,5002.605,221139.705,96,216137.1
2018-01-03 12:57:45,-8.65,4000,False,NaN,5002.7,NaN,Toberlorone,10.0,True,Milano,1.35,True,MDMMT0006,5002.7,227141.095,97,222138.395
2018-01-03 12:57:45,-0.1,4000,False,NaN,4996.6,NaN,Doritosranch,3.78,True,Dots_one,3.68,True,MDMMT0006,4996.6,233136.255,98,228139.655
2018-01-03 12:57:45,-2.3,4000,False,NaN,4996.94,NaN,PringlesRed,2.39,True,WheatThins,0.09,True,MDMMT0006,4996.94,239137.95,99,234141.01
2018-01-03 12:57:45,-0.51,4000,False,NaN,5002.485,NaN,TeddyGrahamschocolate,8.15,True,AnimalCrackers,7.64,True,MDMMT0006,5002.485,245139.305,100,240136.82
2018-01-03 12:57:45,-4.77,4000,False,NaN,5002.54,NaN,AnimalCrackers,7.64,True,PopTartsStrawberry,2.87,True,MDMMT0006,5002.54,251140.57,101,246138.03
2018-01-03 12:57:45,-0.01,4000,False,NaN,4994.755,NaN,Ghiradelli_milk_Almonds,1.04,True,Ruffles,1.03,True,MDMMT0006,4994.755,257136.455,102,252141.7
2018-01-03 12:57:45,-3.2,4000,False,NaN,4996.345,NaN,Cheetos,8.54,True,Butterfinger,5.34,True,MDMMT0006,4996.345,263136.735,103,258140.39
2018-01-03 12:57:45,-2.54,4000,False,NaN,5001.615,NaN,AnimalCrackers,7.64,True,Slimjim,5.1,True,MDMMT0006,5001.615,269139.45,104,264137.835
2018-01-03 12:57:45,-3.62,4000,False,NaN,5001.97,NaN,Oreos,5.96,True,MrGoodbar,2.34,True,MDMMT0006,5001.97,275140.24,105,270138.27
2018-01-03 12:57:45,0.13,4000,False,NaN,4998.625,NaN,PopTartsStrawberry,2.87,True,FamousAmos_small,3.0,True,MDMMT0006,4998.625,281139.795,106,276141.17
2018-01-03 12:57:45,-0.31,4000,False,NaN,4996.31,NaN,Goldfish,4.09,True,Doritosranch,3.78,True,MDMMT0006,4996.31,287137.885,107,282141.575
2018-01-03 12:57:45,-7.63,4000,False,NaN,4996.925,NaN,SourSkittles,10.0,True,Twix,2.37,True,MDMMT0006,4996.925,293138.16,108,288141.235
2018-01-03 12:57:45,6.46,4000,False,NaN,5000.73,NaN,100grand_small,3.54,True,SourSkittles,10.0,True,MDMMT0006,5000.73,299140.43,109,294139.7
2018-01-03 12:57:45,-0.55,4000,False,NaN,4997.49,NaN,ChipsAhoy_small,6.65,True,KitKat_small,6.1,True,MDMMT0006,4997.49,305138.505,110,300141.015
2018-01-03 12:57:45,1.59,4000,False,NaN,4999.935,NaN,Doritosranch,3.78,True,Laysclassic,5.37,True,MDMMT0006,4999.935,311136.525,111,306136.59
2018-01-03 12:57:45,-0.55,4000,False,NaN,5002.05,NaN,RitzBitz2,4.01,True,MrsFields,3.46,True,MDMMT0006,5002.05,317140.315,112,312138.265
2018-01-03 12:57:45,0.72,4000,False,NaN,4999.07,NaN,Snickers,5.12,True,Cheezits,5.84,True,MDMMT0006,4999.07,323136.945,113,318137.875
2018-01-03 12:57:45,-5.67,4000,False,NaN,5000.605,NaN,TootsieRolls,9.17,True,MilkyWay,3.5,True,MDMMT0006,5000.605,329141.345,114,324140.74
2018-01-03 12:57:45,-0.86,4000,False,NaN,5001.12,NaN,TeddyGrahamschocolate,8.15,True,Sourpatch,7.29,True,MDMMT0006,5001.12,335138.26,115,330137.14
2018-01-03 12:57:45,-0.04,4000,False,NaN,4999.435,NaN,100grand_small,3.54,True,MilkyWay,3.5,True,MDMMT0006,4999.435,341136.43,116,336136.995
2018-01-03 12:57:45,0.21,4000,False,NaN,5002.925,NaN,Granolabar,5.18,True,Skittles,5.39,True,MDMMT0006,5002.925,347139.48,117,342136.555
2018-01-03 12:57:45,0.49,4000,False,NaN,5000.955,NaN,BabyRuth,2.18,True,Lollipopred,2.67,True,MDMMT0006,5000.955,353139.38,118,348138.425
2018-01-03 12:57:45,-0.13,4000,False,NaN,4995.305,NaN,PayDay,9.95,True,CheesyDoritos,9.82,True,MDMMT0006,4995.305,359136.21,119,354140.905
2018-01-03 12:57:45,0.03,4000,False,NaN,4999.275,NaN,FlamingCheetos,4.15,True,Keeblerfudgestripes,4.18,True,MDMMT0006,4999.275,365136.4,120,360137.125
2018-01-03 12:57:45,-1.66,4000,False,NaN,4995.275,NaN,Butterfinger,5.34,True,Dots_one,3.68,True,MDMMT0006,4995.275,371137.0,121,366141.725
2018-01-03 12:57:45,-0.78,4000,False,NaN,5000.38,NaN,Hersheykisses,5.96,True,Granolabar,5.18,True,MDMMT0006,5000.38,377139.89,122,372139.51
2018-01-03 12:57:45,-4.62,4000,False,NaN,4997.87,NaN,Sourpatch,7.29,True,Lollipopred,2.67,True,MDMMT0006,4997.87,383137.72,123,378139.85
2018-01-03 12:57:45,0.59,4000,False,NaN,5001.31,NaN,Lollipopred,2.67,True,Reeses,3.26,True,MDMMT0006,5001.31,389138.455,124,384137.145
2018-01-03 12:57:45,1.64,4000,False,NaN,5001.79,NaN,100grand_small,3.54,True,Granolabar,5.18,True,MDMMT0006,5001.79,395138.965,125,390137.175
2018-01-03 12:57:45,-0.59,4000,False,NaN,5000.42,NaN,Goldfish,4.09,True,MilkyWay,3.5,True,MDMMT0006,5000.42,401137.64,126,396137.22
2018-01-03 12:57:45,2.5,4000,False,NaN,4995.62,NaN,FlamingCheetos,4.15,True,ChipsAhoy_small,6.65,True,MDMMT0006,4995.62,407136.675,127,402141.055
2018-01-03 12:57:45,0.25,4000,False,NaN,5003.86,NaN,Oreos,5.96,True,PeanutMMs,6.21,True,MDMMT0006,5003.86,413141.105,128,408137.245
2018-01-03 12:57:45,-1.09,4000,False,NaN,4998.915,NaN,Goldfish,4.09,True,FamousAmos_small,3.0,True,MDMMT0006,4998.915,419139.935,129,414141.02
2018-01-03 12:57:45,-1.88,4000,False,NaN,4999.975,NaN,TootsieRolls,9.17,True,Sourpatch,7.29,True,MDMMT0006,4999.975,425137.905,130,420137.93
2018-01-03 12:57:45,-2.22,4000,False,NaN,4996.4,NaN,Reeses,3.26,True,Ghiradelli_milk_Almonds,1.04,True,MDMMT0006,4996.4,431137.86,131,426141.46
2018-01-03 12:57:45,2.19,4000,False,NaN,4999.8,NaN,starburst,6.76,True,Chocolate_mm,8.95,True,MDMMT0006,4999.8,437140.82,132,432141.02
2018-01-03 12:57:45,0.63,4000,False,NaN,5001.505,NaN,Twix,2.37,True,FamousAmos_small,3.0,True,MDMMT0006,5001.505,443141.39,133,438139.885
2018-01-03 12:57:45,-0.03,4000,False,NaN,5003.23,NaN,Laysclassic,5.37,True,Butterfinger,5.34,True,MDMMT0006,5003.23,449141.34,134,444138.11
2018-01-03 12:57:45,2.39,4000,False,NaN,4998.69,NaN,Cheezits,5.84,True,3Musketeers,8.23,True,MDMMT0006,4998.69,455140.28,135,450141.59
2018-01-03 12:57:45,0.2,4000,False,NaN,5000.47,NaN,Riprolls,0.01,True,Jollyranchergreen,0.21,True,MDMMT0006,5000.47,461137.92,136,456137.45
2018-01-03 12:57:45,-0.94,4000,False,NaN,4997.775,NaN,3Musketeers,8.23,True,Sourpatch,7.29,True,MDMMT0006,4997.775,467139.635,137,462141.86
2018-01-03 12:57:46,-0.83,4000,False,NaN,4997.895,NaN,Milkduds,4.29,True,MrsFields,3.46,True,MDMMT0006,4997.895,473136.675,138,468138.78
2018-01-03 12:57:46,2.58,4000,False,NaN,4998.01,NaN,Hersheykisses,5.96,True,Cheetos,8.54,True,MDMMT0006,4998.01,479136.44,139,474138.43
2018-01-03 12:57:46,-0.54,4000,False,NaN,5002.305,NaN,CheesyDoritos,9.82,True,FigNewton_small,9.28,True,MDMMT0006,5002.305,485139.77,140,480137.465
2018-01-03 12:57:46,-8.38,4000,False,NaN,4995.75,NaN,Toberlorone,10.0,True,Nutterbutter,1.62,True,MDMMT0006,4995.75,491137.045,141,486141.295
2018-01-03 12:57:46,-0.62,4000,False,NaN,5003.26,NaN,Cheese_PeanutButterCrackers,9.9,True,FigNewton_small,9.28,True,MDMMT0006,5003.26,497140.275,142,492137.015
2018-01-03 12:57:46,0.11,4000,False,NaN,5001.555,NaN,Jollyranchergreen,0.21,True,Hersheymilk_several,0.32,True,MDMMT0006,5001.555,503138.73,143,498137.175
2018-01-03 12:57:46,0.69,4000,False,NaN,5000.565,NaN,Almondjoy,0.34,True,Ruffles,1.03,True,MDMMT0006,5000.565,509139.095,144,504138.53
2018-01-03 12:57:46,0.19,4000,False,NaN,4259.46,NaN,Granolabar,5.18,True,Laysclassic,5.37,True,MDMMT0006,4259.46,514137.16,145,509877.7
2018-01-03 12:57:46,-4.09,4000,False,NaN,4003.52,NaN,Snickers,5.12,True,Ruffles,1.03,True,MDMMT0006,4003.52,519140.335,146,515136.815
2018-01-03 12:57:46,-1.86,4000,False,NaN,4492.805,NaN,BabyRuth,2.18,True,Hersheymilk_several,0.32,True,MDMMT0006,4492.805,524136.29,147,519643.485
2018-01-03 12:57:46,-0.48,4000,False,NaN,4999.575,NaN,Funyuns_small,0.82,True,Almondjoy,0.34,True,MDMMT0006,4999.575,530138.565,148,525138.99
2018-01-03 12:57:46,-0.03,4000,False,NaN,4995.97,NaN,Twix,2.37,True,MrGoodbar,2.34,True,MDMMT0006,4995.97,536136.38,149,531140.41
2018-01-03 12:57:46,3.73,4000,False,NaN,5003.26,NaN,Twix,2.37,True,KitKat_small,6.1,True,MDMMT0006,5003.26,542140.29,150,537137.03
2018-01-03 12:57:46,-0.08,4000,False,NaN,4190.745,NaN,Goldfish,4.09,True,RitzBitz2,4.01,True,MDMMT0006,4190.745,547330.29,151,543139.545
2018-01-03 12:57:46,-3.94,4000,False,NaN,4304.175,NaN,Cheese_PeanutButterCrackers,9.9,True,Hersheykisses,5.96,True,MDMMT0006,4304.175,552136.38,152,547832.205
2018-01-03 12:57:46,0.18,4000,False,NaN,4999.53,NaN,MilkyWay,3.5,True,Dots_one,3.68,True,MDMMT0006,4999.53,558137.14,153,553137.61
2018-01-03 12:57:46,-8.16,4000,False,NaN,5000.33,NaN,Toberlorone,10.0,True,Whatchamacallit,1.84,True,MDMMT0006,5000.33,564137.17,154,559136.84
2018-01-03 12:57:46,0.39,4000,False,NaN,5001.07,NaN,PopTartsStrawberry,2.87,True,Reeses,3.26,True,MDMMT0006,5001.07,570139.67,155,565138.6
2018-01-03 12:57:46,0.05,4000,False,NaN,4998.51,NaN,Cheese_PeanutButterCrackers,9.9,True,PayDay,9.95,True,MDMMT0006,4998.51,576136.38,156,571137.87
2018-01-03 12:57:46,0.81,4000,False,NaN,5003.63,NaN,Milkduds,4.29,True,Slimjim,5.1,True,MDMMT0006,5003.63,582140.485,157,577136.855
2018-01-03 12:57:46,0.67,4000,False,NaN,4996.815,NaN,FigNewton_small,9.28,True,PayDay,9.95,True,MDMMT0006,4996.815,588136.6,158,583139.785
2018-01-03 12:57:46,-0.89,4000,False,NaN,4998.195,NaN,FlamingCheetos,4.15,True,Reeses,3.26,True,MDMMT0006,4998.195,594136.44,159,589138.245
2018-01-03 12:57:46,-0.31,4000,False,NaN,5004.305,NaN,Hersheymilk_several,0.32,True,Riprolls,0.01,True,MDMMT0006,5004.305,600141.055,160,595136.75
2018-01-03 12:57:46,-0.73,4000,False,NaN,4999.61,NaN,Cheese_PeanutButterCrackers,9.9,True,TootsieRolls,9.17,True,MDMMT0006,4999.61,606141.345,161,601141.735
2018-01-03 12:57:46,-0.72,4000,False,NaN,4998.295,NaN,Chocolate_mm,8.95,True,3Musketeers,8.23,True,MDMMT0006,4998.295,612139.24,162,607140.945
2018-01-03 12:57:46,4.28,4000,False,NaN,5000.955,NaN,Funyuns_small,0.82,True,Slimjim,5.1,True,MDMMT0006,5000.955,618137.57,163,613136.615
2018-01-03 12:57:46,-1.5,4000,False,NaN,4998.63,NaN,Whatchamacallit,1.84,True,Almondjoy,0.34,True,MDMMT0006,4998.63,624136.335,164,619137.705
2018-01-03 12:57:46,-4.0,4000,False,NaN,4998.395,NaN,Goldfish,4.09,True,WheatThins,0.09,True,MDMMT0006,4998.395,630139.295,165,625140.9
2018-01-03 12:57:46,3.17,4000,False,NaN,5003.17,NaN,ChipsAhoy_small,6.65,True,CheesyDoritos,9.82,True,MDMMT0006,5003.17,636140.015,166,631136.845
2018-01-03 12:57:46,-5.49,4000,False,NaN,4997.015,NaN,Chocolate_mm,8.95,True,MrsFields,3.46,True,MDMMT0006,4997.015,642137.02,167,637140.005
2018-01-03 12:57:46,-0.14,4000,True,u,3224.99,KitKat_small,KitKat_small,6.1,True,Oreos,5.96,True,MDMMT0006,3224.99,646362.52,168,643137.53
2018-01-03 12:57:46,-0.25,4000,True,i,44.0750000001,Hersheykisses,PeanutMMs,6.21,True,Hersheykisses,5.96,True,MDMMT0006,44.0750000001,646918.465,169,646874.39
2018-01-03 12:57:46,5.74,4000,False,NaN,4712.05,NaN,Ghiradelli_milk,3.54,True,FigNewton_small,9.28,True,MDMMT0006,4712.05,652137.025,170,647424.975
2018-01-03 12:57:46,-2.66,4000,True,u,169.23,PayDay,PayDay,9.95,True,Sourpatch,7.29,True,MDMMT0006,169.23,652811.435,171,652642.205
2018-01-03 12:57:46,-0.49,4000,True,i,83.975,Milano,Whatchamacallit,1.84,True,Milano,1.35,True,MDMMT0006,83.975,653402.175,172,653318.2
2018-01-03 12:57:46,-0.06,4000,True,i,96.125,Snickers,Granolabar,5.18,True,Snickers,5.12,True,MDMMT0006,96.125,654001.245,173,653905.12
2018-01-03 12:57:46,-7.5,4000,True,u,51.0699999999,SourSkittles,SourSkittles,10.0,True,RiceKrispyTreat_small,2.5,True,MDMMT0006,51.0699999999,654558.285,174,654507.215
2018-01-03 12:57:46,-0.32,4000,True,i,59.7400000001,FamousAmos_small,Crunch,3.32,True,FamousAmos_small,3.0,True,MDMMT0006,59.7400000001,655154.235,175,655094.495
2018-01-03 12:57:46,-3.05,4000,True,i,15.9299999999,Granolabar,3Musketeers,8.23,True,Granolabar,5.18,True,MDMMT0006,15.9299999999,655698.145,176,655682.215
2018-01-03 12:57:46,-0.12,4000,True,i,59.8400000001,Cheezits,Hersheykisses,5.96,True,Cheezits,5.84,True,MDMMT0006,59.8400000001,656322.28,177,656262.44
2018-01-03 12:57:46,0.95,4000,True,u,95.965,WheatThins,WheatThins,0.09,True,Ghiradelli_milk_Almonds,1.04,True,MDMMT0006,95.965,656922.17,178,656826.205
2018-01-03 12:57:46,1.14,4000,True,i,29.9400000001,RitzBitz2,PopTartsStrawberry,2.87,True,RitzBitz2,4.01,True,MDMMT0006,29.9400000001,657458.04,179,657428.1
2018-01-03 12:57:46,0.25,4000,True,i,61.3300000001,Laysclassic,Snickers,5.12,True,Laysclassic,5.37,True,MDMMT0006,61.3300000001,658078.035,180,658016.705
2018-01-03 12:57:46,2.25,4000,True,i,277.575,AnimalCrackers,Skittles,5.39,True,AnimalCrackers,7.64,True,MDMMT0006,277.575,658874.155,181,658596.58
2018-01-03 12:57:46,-0.64,4000,True,u,45.1300000001,Keeblerfudgestripes,Keeblerfudgestripes,4.18,True,100grand_small,3.54,True,MDMMT0006,45.1300000001,659423.955,182,659378.825
2018-01-03 12:57:46,-4.14,4000,True,i,42.5700000002,Ghiradelli_milk_Almonds,Granolabar,5.18,True,Ghiradelli_milk_Almonds,1.04,True,MDMMT0006,42.5700000002,660013.025,183,659970.455
2018-01-03 12:57:46,-0.14,4000,True,i,193.915,FlamingCheetos,Milkduds,4.29,True,FlamingCheetos,4.15,True,MDMMT0006,193.915,660742.085,184,660548.17
2018-01-03 12:57:46,-0.31,4000,True,i,131.845,3Musketeers,Cheetos,8.54,True,3Musketeers,8.23,True,MDMMT0006,131.845,661378.045,185,661246.2
2018-01-03 12:57:46,0.63,4000,True,u,159.675,Cheetos,Cheetos,8.54,True,TootsieRolls,9.17,True,MDMMT0006,159.675,662045.995,186,661886.32
2018-01-03 12:57:46,-1.15,4000,True,i,189.945,Milano,RiceKrispyTreat_small,2.5,True,Milano,1.35,True,MDMMT0006,189.945,662741.76,187,662551.815
2018-01-03 12:57:46,0.62,4000,True,u,37.0600000001,Butterfinger,Butterfinger,5.34,True,Oreos,5.96,True,MDMMT0006,37.0600000001,663281.755,188,663244.695
2018-01-03 12:57:46,-3.99,4000,True,i,40.045,Milano,Butterfinger,5.34,True,Milano,1.35,True,MDMMT0006,40.045,663876.68,189,663836.635
2018-01-03 12:57:46,0.26,4000,True,u,147.36,Cheezits,Cheezits,5.84,True,KitKat_small,6.1,True,MDMMT0006,147.36,664564.83,190,664417.47
2018-01-03 12:57:46,4.52,4000,True,i,66.74,Toberlorone,Laffytaffyred_one,5.48,True,Toberlorone,10.0,True,MDMMT0006,66.74,665140.67,191,665073.93
2018-01-03 12:57:46,1.83,4000,True,u,45.255,Riprolls,Riprolls,0.01,True,Whatchamacallit,1.84,True,MDMMT0006,45.255,665698.82,192,665653.565
2018-01-03 12:57:46,-0.86,4000,True,u,154.75,Keeblerfudgestripes,Keeblerfudgestripes,4.18,True,Crunch,3.32,True,MDMMT0006,154.75,666390.775,193,666236.025
2018-01-03 12:57:46,0.24,4000,True,u,73.4450000001,Ghiradelli_milk,Ghiradelli_milk,3.54,True,Doritosranch,3.78,True,MDMMT0006,73.4450000001,666972.57,194,666899.125
2018-01-03 12:57:46,-2.67,4000,True,u,32.35,TeddyGrahamschocolate,TeddyGrahamschocolate,8.15,True,Laffytaffyred_one,5.48,True,MDMMT0006,32.35,667514.705,195,667482.355
2018-01-03 12:57:46,-1.97,4000,True,u,64.78,Crunch,Crunch,3.32,True,Milano,1.35,True,MDMMT0006,64.78,668127.57,196,668062.79
2018-01-03 12:57:46,-0.09,4000,True,i,128.185,Skittles,Laffytaffyred_one,5.48,True,Skittles,5.39,True,MDMMT0006,128.185,668774.795,197,668646.61
2018-01-03 12:57:46,0.0,4000,True,i,215.935,Ghiradelli_milk,100grand_small,3.54,True,Ghiradelli_milk,3.54,True,MDMMT0006,215.935,669496.59,198,669280.655
2018-01-03 12:57:46,2.12,4000,True,u,19.8800000001,Goldfish,Goldfish,4.09,True,PeanutMMs,6.21,True,MDMMT0006,19.8800000001,670021.59,199,670001.71
2018-01-03 12:57:46,-0.2,4000,True,i,107.89,Goldfish,Milkduds,4.29,True,Goldfish,4.09,True,MDMMT0006,107.89,670638.625,200,670530.735
2018-01-03 12:57:46,1.67,4000,True,u,98.7700000001,TeddyGrahamschocolate,TeddyGrahamschocolate,8.15,True,CheesyDoritos,9.82,True,MDMMT0006,98.7700000001,671242.625,201,671143.855
2018-01-03 12:57:47,-2.58,4000,True,i,76.04,Keeblerfudgestripes,starburst,6.76,True,Keeblerfudgestripes,4.18,True,MDMMT0006,76.04,671822.57,202,671746.53
2018-01-03 12:57:47,6.22,4000,True,u,27.1599999999,Dots_one,Dots_one,3.68,True,Cheese_PeanutButterCrackers,9.9,True,MDMMT0006,27.1599999999,672358.37,203,672331.21
2018-01-03 12:57:47,3.58,4000,True,i,57.4449999999,Chocolate_mm,Laysclassic,5.37,True,Chocolate_mm,8.95,True,MDMMT0006,57.4449999999,672922.355,204,672864.91
2018-01-03 12:57:47,1.64,4000,True,u,123.105,AnimalCrackers,AnimalCrackers,7.64,True,FigNewton_small,9.28,True,MDMMT0006,123.105,673561.505,205,673438.4
2018-01-03 12:57:47,-0.25,4000,True,u,71.355,Almondjoy,Almondjoy,0.34,True,WheatThins,0.09,True,MDMMT0006,71.355,674136.47,206,674065.115
2018-01-03 12:57:47,-0.21,4000,True,i,84.8049999999,BabyRuth,PringlesRed,2.39,True,BabyRuth,2.18,True,MDMMT0006,84.8049999999,674728.45,207,674643.645
2018-01-03 12:57:47,3.82,4000,True,i,30.825,PeanutMMs,PringlesRed,2.39,True,PeanutMMs,6.21,True,MDMMT0006,30.825,675268.26,208,675237.435
2018-01-03 12:57:47,-3.75,4000,True,i,111.055,Nutterbutter,Laysclassic,5.37,True,Nutterbutter,1.62,True,MDMMT0006,111.055,675934.365,209,675823.31
