trialDuration,stimulus2Loaded,trialEndTime,maxTrialTime,stimulus1Bid,receivedResponse,rt,selected,rsp,trialStartTime,trialN,stimulus2Bid,stimulus1,stimulus1Loaded,stimulus2
4001.41,True,4201.26,4000,1.66,False,4001.41,NaN,None,199.85,0,1.93,FrootLoops,True,ApplePie
4000.28,True,8706.975,4000,1.85,False,4000.28,NaN,None,4706.695,1,1.93,wildberrynerds,True,ApplePie
4358.34,True,13571.81,4000,1.93,False,4358.34,NaN,None,9213.47,2,1.85,ApplePie,True,wildberrynerds
4996.67,True,19571.565,4000,1.66,False,4996.67,NaN,None,14574.895,3,2.21,FrootLoops,True,Twinkie
4985.09,True,25571.475,4000,1.75,False,4985.09,NaN,None,20586.385,4,1.93,CornPops,True,ApplePie
6428.65,True,33003.915,4000,1.75,False,6428.65,NaN,None,26575.265,5,1.68,CornPops,True,Jollyrancherred
4782.365,True,38571.58,4000,1.93,False,4782.365,NaN,None,33789.215,6,1.66,ApplePie,True,FrootLoops
6241.78,True,45816.405,4000,1.66,False,6241.78,NaN,None,39574.625,7,1.71,FrootLoops,True,Lindt_small
4927.71,True,51576.565,4000,1.85,False,4927.71,NaN,None,46648.855,8,1.66,wildberrynerds,True,FrootLoops
4997.62,True,57573.165,4000,1.71,False,4997.62,NaN,None,52575.545,9,1.41,Lindt_small,True,PopTartsCinnamon
4994.505,True,63571.7,4000,1.75,False,4994.505,NaN,None,58577.195,10,1.85,CornPops,True,wildberrynerds
4894.51,True,68974.835,4000,2.21,False,4894.51,NaN,None,64080.325,11,1.71,Twinkie,True,Lindt_small
6346.36,True,76197.75,4000,1.71,False,6346.36,NaN,None,69851.39,12,1.93,Lindt_small,True,ApplePie
4994.895,True,82572.195,4000,1.85,False,4994.895,NaN,None,77577.3,13,1.75,wildberrynerds,True,CornPops
4500.72,True,88572.225,4000,1.93,False,4500.72,NaN,None,84071.505,14,2.21,ApplePie,True,Twinkie
4994.66,True,94572.23,4000,1.75,False,4994.66,NaN,None,89577.57,15,2.21,CornPops,True,Twinkie
3642.64,True,99715.1,4000,1.85,True,3642.64,wildberrynerds,u,96072.46,16,1.41,wildberrynerds,True,PopTartsCinnamon
167.35,True,100393.105,4000,1.41,True,167.35,Lindt_small,i,100225.755,17,1.71,PopTartsCinnamon,True,Lindt_small
136.835,True,101038.455,4000,2.21,True,136.835,Twinkie,u,100901.62,18,1.85,Twinkie,True,wildberrynerds
76.23,True,101621.99,4000,1.85,True,76.23,Jollyrancherred,i,101545.76,19,1.68,wildberrynerds,True,Jollyrancherred
11.43,True,102143.995,4000,1.93,True,11.43,ApplePie,u,102132.565,20,1.75,ApplePie,True,CornPops
468.73,True,103117.985,4000,1.41,True,468.73,PopTartsCinnamon,u,102649.255,21,2.21,PopTartsCinnamon,True,Twinkie
231.315,True,103858.905,4000,1.41,True,231.315,ApplePie,i,103627.59,22,1.93,PopTartsCinnamon,True,ApplePie
223.625,True,104590.875,4000,2.21,True,223.625,Twinkie,u,104367.25,23,1.75,Twinkie,True,CornPops
155.585,True,105255.825,4000,2.21,True,155.585,PopTartsCinnamon,i,105100.24,24,1.41,Twinkie,True,PopTartsCinnamon
88.215,True,105853.65,4000,1.93,True,88.215,ApplePie,u,105765.435,25,1.41,ApplePie,True,PopTartsCinnamon
72.845,True,106434.715,4000,1.41,True,72.845,Jollyrancherred,i,106361.87,26,1.68,PopTartsCinnamon,True,Jollyrancherred
107.815,True,107052.74,4000,1.75,True,107.815,CornPops,u,106944.925,27,1.66,CornPops,True,FrootLoops
176.59,True,107737.735,4000,1.66,True,176.59,PopTartsCinnamon,i,107561.145,28,1.41,FrootLoops,True,PopTartsCinnamon
184.92,True,108430.77,4000,2.21,True,184.92,Twinkie,u,108245.85,29,1.66,Twinkie,True,FrootLoops
85.65,True,109025.665,4000,1.75,True,85.65,Lindt_small,i,108940.015,30,1.71,CornPops,True,Lindt_small
116.135,True,109648.675,4000,1.68,True,116.135,PopTartsCinnamon,i,109532.54,31,1.41,Jollyrancherred,True,PopTartsCinnamon
113.625,True,110269.685,4000,1.71,True,113.625,CornPops,i,110156.06,32,1.75,Lindt_small,True,CornPops
101.365,True,110882.6,4000,1.68,True,101.365,Lindt_small,i,110781.235,33,1.71,Jollyrancherred,True,Lindt_small
101.285,True,111492.56,4000,1.71,True,101.285,FrootLoops,i,111391.275,34,1.66,Lindt_small,True,FrootLoops
110.985,True,112114.35,4000,1.68,True,110.985,Twinkie,i,112003.365,35,2.21,Jollyrancherred,True,Twinkie
97.25,True,112717.515,4000,1.93,True,97.25,ApplePie,u,112620.265,36,1.71,ApplePie,True,Lindt_small
69.515,True,113297.455,4000,1.41,True,69.515,wildberrynerds,i,113227.94,37,1.85,PopTartsCinnamon,True,wildberrynerds
63.37,True,113865.395,4000,1.68,True,63.37,Jollyrancherred,u,113802.025,38,1.93,Jollyrancherred,True,ApplePie
471.735,True,114847.455,4000,1.71,True,471.735,Jollyrancherred,i,114375.72,39,1.68,Lindt_small,True,Jollyrancherred
10.38,True,115370.225,4000,1.66,True,10.38,Jollyrancherred,i,115359.845,40,1.68,FrootLoops,True,Jollyrancherred
163.22,True,116044.35,4000,1.66,True,163.22,CornPops,i,115881.13,41,1.75,FrootLoops,True,CornPops
316.07,True,116867.36,4000,1.68,True,316.07,FrootLoops,i,116551.29,42,1.66,Jollyrancherred,True,FrootLoops
231.71,True,117609.28,4000,1.68,True,231.71,Jollyrancherred,u,117377.57,43,1.85,Jollyrancherred,True,wildberrynerds
92.025,True,118208.09,4000,1.71,True,92.025,Lindt_small,u,118116.065,44,2.21,Lindt_small,True,Twinkie
337.195,True,119056.26,4000,1.41,True,337.195,FrootLoops,i,118719.065,45,1.66,PopTartsCinnamon,True,FrootLoops
83.17,True,119647.07,4000,1.41,True,83.17,CornPops,i,119563.9,46,1.75,PopTartsCinnamon,True,CornPops
6.59999999999,True,120161.005,4000,1.75,True,6.59999999999,PopTartsCinnamon,i,120154.405,47,1.41,CornPops,True,PopTartsCinnamon
174.71,True,120847.04,4000,1.66,True,174.71,wildberrynerds,i,120672.33,48,1.85,FrootLoops,True,wildberrynerds
53.12,True,121406.935,4000,1.71,True,53.12,wildberrynerds,i,121353.815,49,1.85,Lindt_small,True,wildberrynerds
235.485,True,122154.12,4000,2.21,True,235.485,Jollyrancherred,i,121918.635,50,1.68,Twinkie,True,Jollyrancherred
50.165,True,122715.895,4000,1.85,True,50.165,Twinkie,i,122665.73,51,2.21,wildberrynerds,True,Twinkie
136.725,True,123359.995,4000,2.21,True,136.725,ApplePie,i,123223.27,52,1.93,Twinkie,True,ApplePie
149.625,True,124020.04,4000,1.68,True,149.625,CornPops,i,123870.415,53,1.75,Jollyrancherred,True,CornPops
29.17,True,124563.805,4000,1.93,True,29.17,Jollyrancherred,i,124534.635,54,1.68,ApplePie,True,Jollyrancherred
18.625,True,125091.835,4000,1.85,True,18.625,Lindt_small,i,125073.21,55,1.71,wildberrynerds,True,Lindt_small
