trialDuration,stimulus2Loaded,trialEndTime,maxTrialTime,stimulus1Bid,receivedResponse,delta,rt,selected,rsp,trialStartTime,trialN,stimulus2Bid,stimulus1,stimulus1Loaded,stimulus2
80.46,True,513.73,4000,1.39,True,0.11,80.46,Skittles,u,433.27,0,1.5,Skittles,True,Milkduds
33.7,True,1052.645,4000,0.48,True,0.71,33.7,RitzBitz2,i,1018.945,1,1.19,FlamingCheetos,True,RitzBitz2
305.255,True,1862.61,4000,1.27,True,-0.23,305.255,BabyRuth,u,1557.355,2,1.04,BabyRuth,True,Nutterbutter
27.08,True,2397.645,4000,0.43,True,-0.02,27.08,PeanutMMs,u,2370.565,3,0.41,PeanutMMs,True,Ruffles
24.01,True,2927.555,4000,1.2,True,-0.79,24.01,Chocolate_mm,u,2903.545,4,0.41,Chocolate_mm,True,Ruffles
2533.21,True,5967.64,4000,2.02,True,-0.06,2533.21,WheatThins,i,3434.43,5,1.96,SourSkittles,True,WheatThins
4000.71,True,10476.915,4000,1.41,False,-0.75,4000.71,None,NaN,6476.205,6,0.66,Oreos,True,Toberlorone
753.77,True,11736.405,4000,1.41,True,1.21,753.77,Oreos,u,10982.635,7,2.62,Oreos,True,Snickers
209.55,True,12455.305,4000,0.24,True,0.61,209.55,Slimjim,i,12245.755,8,0.85,PopTartsStrawberry,True,Slimjim
3346.21,True,16308.175,4000,1.2,True,0.08,3346.21,Whatchamacallit,i,12961.965,9,1.28,Chocolate_mm,True,Whatchamacallit
164.45,True,16977.34,4000,0.66,True,-0.39,164.45,100grand_small,u,16812.89,10,0.27,100grand_small,True,TootsieRolls
3415.545,True,20899.8,4000,0.76,True,-0.28,3415.545,Ghiradelli_milk,u,17484.255,11,0.48,Ghiradelli_milk,True,FlamingCheetos
4115.965,True,25521.105,4000,1.45,False,-0.54,4115.965,None,NaN,21405.14,12,0.91,Cheese_PeanutButterCrackers,True,Dots_one
4280.81,True,30849.37,4000,0.27,False,-0.24,4280.81,None,NaN,26568.56,13,0.03,TootsieRolls,True,Hersheymilk_several
4256.61,True,35608.005,4000,2.5,False,-0.22,4256.61,None,NaN,31351.395,14,2.28,FamousAmos_small,True,Butterfinger
5001.885,True,41508.625,4000,1.14,False,0.2,5001.885,None,NaN,36506.74,15,1.34,Cheezits,True,3Musketeers
4004.74,True,47004.93,4000,1.58,False,0.68,4004.74,None,NaN,43000.19,16,2.26,Fritos,True,Laffytaffyred_one
4000.805,True,51506.62,4000,2.34,False,-0.08,4000.805,None,NaN,47505.815,17,2.26,Sourpatch,True,Hersheykisses
4092.15,True,57091.145,4000,1.93,False,0.03,4092.15,None,NaN,52998.995,18,1.96,Granolabar,True,WheatThins
441.06,True,58034.25,4000,0.48,True,-0.24,441.06,FlamingCheetos,u,57593.19,19,0.24,FlamingCheetos,True,PopTartsStrawberry
66.145,True,58609.28,4000,2.62,True,-0.01,66.145,FigNewton_small,i,58543.135,20,2.61,Snickers,True,FigNewton_small
313.08,True,59429.295,4000,1.63,True,-0.15,313.08,PringlesRed,u,59116.215,21,1.48,PringlesRed,True,KitKat_small
372.97,True,60311.18,4000,2.4,True,0.21,372.97,Cheetos,u,59938.21,22,2.61,Cheetos,True,FigNewton_small
201.055,True,61021.145,4000,1.51,True,-0.23,201.055,Laysclassic,u,60820.09,23,1.28,Laysclassic,True,Whatchamacallit
3097.055,True,64626.745,4000,1.27,True,1.07,3097.055,BabyRuth,u,61529.69,24,2.34,BabyRuth,True,Sourpatch
1930.495,True,67064.905,4000,2.62,True,-0.6,1930.495,SourSkittles,i,65134.41,25,2.02,Snickers,True,SourSkittles
2145.775,True,69716.7,4000,0.66,True,0.1,2145.775,Ghiradelli_milk,i,67570.925,26,0.76,100grand_small,True,Ghiradelli_milk
112.38,True,70337.695,4000,1.45,True,0.39,112.38,Cheese_PeanutButterCrackers,u,70225.315,27,1.84,Cheese_PeanutButterCrackers,True,Twix
487.98,True,71333.645,4000,0.45,True,0.82,487.98,BabyRuth,i,70845.665,28,1.27,MilkyWay,True,BabyRuth
299.455,True,72140.485,4000,0.91,True,-0.06,299.455,Dots_one,u,71841.03,29,0.85,Dots_one,True,Slimjim
152.99,True,72801.55,4000,0.43,True,0.78,152.99,PeanutMMs,u,72648.56,30,1.21,PeanutMMs,True,Riprolls
3269.525,True,76576.37,4000,2.84,True,-0.56,3269.525,Goldfish,u,73306.845,31,2.28,Goldfish,True,Butterfinger
326.69,True,77410.34,4000,2.24,True,-0.22,326.69,Almondjoy,u,77083.65,32,2.02,Almondjoy,True,SourSkittles
344.3,True,78260.235,4000,0.24,True,1.27,344.3,Laysclassic,i,77915.935,33,1.51,PopTartsStrawberry,True,Laysclassic
89.155,True,78858.275,4000,1.5,True,-0.05,89.155,Cheese_PeanutButterCrackers,i,78769.12,34,1.45,Milkduds,True,Cheese_PeanutButterCrackers
618.38,True,79980.24,4000,0.91,True,0.13,618.38,Dots_one,u,79361.86,35,1.04,Dots_one,True,Nutterbutter
153.54,True,80643.185,4000,1.09,True,0.98,153.54,Funyuns_small,i,80489.645,36,2.07,TeddyGrahamschocolate,True,Funyuns_small
268.115,True,81420.245,4000,2.28,True,-0.65,268.115,Butterfinger,u,81152.13,37,1.63,Butterfinger,True,PringlesRed
361.745,True,82288.185,4000,1.19,True,-0.34,361.745,Slimjim,i,81926.44,38,0.85,RitzBitz2,True,Slimjim
166.265,True,82963.16,4000,2.61,True,-1.22,166.265,Skittles,i,82796.895,39,1.39,FigNewton_small,True,Skittles
201.035,True,83668.155,4000,1.52,True,-1.25,201.035,Keeblerfudgestripes,u,83467.12,40,0.27,Keeblerfudgestripes,True,TootsieRolls
2.63000000002,True,84178.99,4000,1.93,True,0.09,2.63000000002,Reeses,u,84176.36,41,2.02,Reeses,False,SourSkittles
25.045,True,84712.84,4000,1.34,True,1.16,25.045,3Musketeers,u,84687.795,42,2.5,3Musketeers,True,FamousAmos_small
106.795,True,85325.82,4000,1.2,True,-0.06,106.795,Chocolate_mm,u,85219.025,43,1.14,Chocolate_mm,True,Cheezits
4005.44,True,89838.445,4000,0.43,False,0.33,4005.44,None,NaN,85833.005,44,0.76,PeanutMMs,True,Ghiradelli_milk
1458.65,True,91803.045,4000,2.26,True,-0.74,1458.65,Hersheykisses,u,90344.395,45,1.52,Hersheykisses,True,Keeblerfudgestripes
5.48999999999,False,92316.865,4000,0.76,True,-0.55,5.48999999999,Doritosranch,i,92311.375,46,0.21,Ghiradelli_milk,True,Doritosranch
94.335,True,92917.035,4000,1.97,True,0.27,94.335,Almondjoy,i,92822.7,47,2.24,PayDay,True,Almondjoy
70.965,True,93493.05,4000,1.04,True,-0.09,70.965,Lollipopred,i,93422.085,48,0.95,Nutterbutter,True,Lollipopred
111.58,True,94111.015,4000,1.2,True,-0.54,111.58,Chocolate_mm,u,93999.435,49,0.66,Chocolate_mm,True,100grand_small
115.98,True,94735.99,4000,1.34,True,0.18,115.98,3Musketeers,u,94620.01,50,1.52,3Musketeers,True,Keeblerfudgestripes
31.685,True,95272.84,4000,1.96,True,-0.19,31.685,CheesyDoritos,i,95241.155,51,1.77,Milano,True,CheesyDoritos
20.635,True,95800.72,4000,1.41,True,-0.02,20.635,ChipsAhoy_small,u,95780.085,52,1.39,ChipsAhoy_small,True,Skittles
70.675,True,96378.825,4000,1.19,True,0.08,70.675,BabyRuth,i,96308.15,53,1.27,RitzBitz2,True,BabyRuth
74.115,True,96961.875,4000,2.02,True,-0.52,74.115,Milkduds,i,96887.76,54,1.5,SourSkittles,True,Milkduds
68.07,True,97538.635,4000,2.99,True,-1.02,68.07,PayDay,i,97470.565,55,1.97,starburst,True,PayDay
50.73,True,98098.795,4000,1.5,True,0.02,50.73,Keeblerfudgestripes,i,98048.065,56,1.52,Milkduds,True,Keeblerfudgestripes
235.19,True,98866.77,4000,0.45,True,-0.42,235.19,MilkyWay,u,98631.58,57,0.03,MilkyWay,True,Hersheymilk_several
162.495,True,99537.715,4000,0.85,True,0.56,162.495,Slimjim,u,99375.22,58,1.41,Slimjim,True,ChipsAhoy_small
90.525,True,100137.12,4000,2.4,True,-0.63,90.525,CheesyDoritos,i,100046.595,59,1.77,Cheetos,True,CheesyDoritos
51.865,True,100692.625,4000,1.96,True,-1.2,51.865,Ghiradelli_milk,i,100640.76,60,0.76,Jollyranchergreen,True,Ghiradelli_milk
287.34,True,101510.48,4000,0.76,True,0.65,287.34,Ghiradelli_milk,u,101223.14,61,1.41,Ghiradelli_milk,True,RiceKrispyTreat_small
114.64,True,102127.625,4000,1.41,True,0.11,114.64,Keeblerfudgestripes,i,102012.985,62,1.52,ChipsAhoy_small,True,Keeblerfudgestripes
366.695,True,102999.39,4000,0.45,True,-0.02,366.695,PeanutMMs,i,102632.695,63,0.43,MrsFields,True,PeanutMMs
104.125,True,103606.46,4000,1.09,True,0.19,104.125,Whatchamacallit,i,103502.335,64,1.28,TeddyGrahamschocolate,True,Whatchamacallit
168.655,True,104282.58,4000,0.91,True,0.18,168.655,TeddyGrahamschocolate,i,104113.925,65,1.09,Dots_one,True,TeddyGrahamschocolate
0.054999999993,True,104786.35,4000,2.9,True,-1.45,0.054999999993,Cheese_PeanutButterCrackers,i,104786.295,66,1.45,AnimalCrackers,False,Cheese_PeanutButterCrackers
3093.655,True,108390.31,4000,1.51,True,-1.3,3093.655,Ghiradelli_milk_Almonds,u,105296.655,67,0.21,Ghiradelli_milk_Almonds,True,Doritosranch
2.27499999999,True,108900.245,4000,0.24,True,0.19,2.27499999999,PeanutMMs,i,108897.97,68,0.43,PopTartsStrawberry,True,PeanutMMs
30.77,True,109436.3,4000,1.96,True,0.54,30.77,FamousAmos_small,i,109405.53,69,2.5,Milano,True,FamousAmos_small
87.5,True,110074.19,4000,2.62,True,0.28,87.5,Snickers,u,109986.69,70,2.9,Snickers,True,AnimalCrackers
28.775,True,110606.04,4000,1.93,True,-0.28,28.775,Crunch,i,110577.265,71,1.65,Reeses,True,Crunch
145.45,True,111254.025,4000,1.41,True,-0.02,145.45,Skittles,i,111108.575,72,1.39,RiceKrispyTreat_small,True,Skittles
49.835,True,111811.19,4000,2.34,True,-0.06,49.835,Sourpatch,u,111761.355,73,2.28,Sourpatch,True,Butterfinger
89.14,True,112407.19,4000,2.88,True,-0.04,89.14,Goldfish,i,112318.05,74,2.84,MrGoodbar,True,Goldfish
106.245,True,113022.15,4000,0.03,True,1.47,106.245,Milkduds,i,112915.905,75,1.5,Hersheymilk_several,True,Milkduds
82.05,True,113613.14,4000,2.61,True,-0.35,82.05,Hersheykisses,i,113531.09,76,2.26,FigNewton_small,True,Hersheykisses
62.665,True,114185.065,4000,0.95,True,-0.1,62.665,Slimjim,i,114122.4,77,0.85,Lollipopred,True,Slimjim
113.16,True,114805.035,4000,2.07,True,-0.1,113.16,PayDay,i,114691.875,78,1.97,Funyuns_small,True,PayDay
96.09,True,115405.005,4000,1.93,True,0.68,96.09,FigNewton_small,i,115308.915,79,2.61,Reeses,True,FigNewton_small
134.98,True,116049.02,4000,2.88,True,0.11,134.98,starburst,i,115914.04,80,2.99,MrGoodbar,True,starburst
143.505,True,116698.955,4000,1.96,True,0.38,143.505,Sourpatch,i,116555.45,81,2.34,Jollyranchergreen,True,Sourpatch
102.32,True,117309.955,4000,2.88,True,-0.27,102.32,FigNewton_small,i,117207.635,82,2.61,MrGoodbar,True,FigNewton_small
80.23,True,117893.83,4000,1.04,True,0.98,80.23,SourSkittles,i,117813.6,83,2.02,Nutterbutter,True,SourSkittles
102.47,True,118501.685,4000,1.96,True,0,102.47,Milano,u,118399.215,84,1.96,Milano,True,WheatThins
114.54,True,119123.66,4000,0.66,True,-0.63,114.54,Toberlorone,u,119009.12,85,0.03,Toberlorone,True,Hersheymilk_several
212.63,True,119843.635,4000,0.24,True,0.03,212.63,PopTartsStrawberry,u,119631.005,86,0.27,PopTartsStrawberry,True,TootsieRolls
254.695,True,120605.765,4000,1.19,True,-0.1,254.695,RitzBitz2,u,120351.07,87,1.09,RitzBitz2,True,TeddyGrahamschocolate
61.06,True,121170.63,4000,1.21,True,0.13,61.06,Riprolls,u,121109.57,88,1.34,Riprolls,True,3Musketeers
204.16,True,121879.62,4000,1.27,True,0.07,204.16,BabyRuth,u,121675.46,89,1.34,BabyRuth,True,3Musketeers
64.415,True,122452.74,4000,1.5,True,0.01,64.415,Milkduds,u,122388.325,90,1.51,Milkduds,True,Ghiradelli_milk_Almonds
184.75,True,123144.665,4000,1.58,True,-0.07,184.75,Fritos,u,122959.915,91,1.51,Fritos,True,Ghiradelli_milk_Almonds
131.605,True,123784.65,4000,1.2,True,-0.29,131.605,Chocolate_mm,u,123653.045,92,0.91,Chocolate_mm,True,Dots_one
128.895,True,124417.64,4000,0.66,True,-0.25,128.895,Toberlorone,u,124288.745,93,0.41,Toberlorone,True,Ruffles
329.72,True,125254.53,4000,2.02,True,-0.05,329.72,PayDay,i,124924.81,94,1.97,SourSkittles,True,PayDay
52.19,True,125815.58,4000,1.84,True,-0.19,52.19,Crunch,i,125763.39,95,1.65,Twix,True,Crunch
140.755,True,126461.55,4000,1.96,True,-1.11,140.755,Slimjim,i,126320.795,96,0.85,WheatThins,True,Slimjim
609.875,True,127580.28,4000,0.48,True,0.18,609.875,Toberlorone,i,126970.405,97,0.66,FlamingCheetos,True,Toberlorone
197.74,True,128282.41,4000,0.66,True,-0.18,197.74,FlamingCheetos,i,128084.67,98,0.48,100grand_small,True,FlamingCheetos
176.47,True,128965.22,4000,1.58,True,-0.19,176.47,Skittles,i,128788.75,99,1.39,Fritos,True,Skittles
1164.73,True,130633.32,4000,1.65,True,-0.24,1164.73,RiceKrispyTreat_small,i,129468.59,100,1.41,Crunch,True,RiceKrispyTreat_small
2960.145,True,134102.22,4000,1.96,True,-0.12,2960.145,Jollyranchergreen,u,131142.075,101,1.84,Jollyranchergreen,True,Twix
231.245,True,134842.165,4000,0.95,True,1.02,231.245,Lollipopred,u,134610.92,102,1.97,Lollipopred,True,PayDay
87.575,True,135437.155,4000,1.58,True,0.05,87.575,Fritos,u,135349.58,103,1.63,Fritos,True,PringlesRed
1671.125,True,137617.05,4000,1.93,True,-0.09,1671.125,Reeses,u,135945.925,104,1.84,Reeses,True,Twix
97.875,True,138223.035,4000,1.96,True,0.44,97.875,Cheetos,i,138125.16,105,2.4,WheatThins,True,Cheetos
4002.645,True,142730.03,4000,1.34,False,-0.86,4002.645,None,NaN,138727.385,106,0.48,3Musketeers,True,FlamingCheetos
4000.875,True,147234.575,4000,0.95,False,0.19,4000.875,None,NaN,143233.7,107,1.14,Lollipopred,True,Cheezits
4001.92,True,151738.41,4000,2.24,False,-0.28,4001.92,None,NaN,147736.49,108,1.96,Almondjoy,True,Jollyranchergreen
3597.895,True,155842,4000,2.88,True,-1.47,3597.895,MrGoodbar,u,152244.105,109,1.41,MrGoodbar,True,ChipsAhoy_small
1852.815,True,158210.585,4000,1.52,True,0.11,1852.815,Keeblerfudgestripes,u,156357.77,110,1.63,Keeblerfudgestripes,True,PringlesRed
2773.92,True,161493.63,4000,0.21,True,0.2,2773.92,Doritosranch,u,158719.71,111,0.41,Doritosranch,True,Ruffles
196.245,True,162198.45,4000,2.4,True,0.1,196.245,FamousAmos_small,i,162002.205,112,2.5,Cheetos,True,FamousAmos_small
134.215,True,162841.465,4000,1.51,True,0.73,134.215,Laysclassic,u,162707.25,113,2.24,Laysclassic,True,Almondjoy
399.105,True,163749.385,4000,0.27,True,0.64,399.105,TootsieRolls,u,163350.28,114,0.91,TootsieRolls,True,Dots_one
174.225,True,164432.395,4000,1.48,True,-0.53,174.225,Lollipopred,i,164258.17,115,0.95,KitKat_small,True,Lollipopred
237.895,True,165178.355,4000,1.58,True,-0.07,237.895,Fritos,u,164940.46,116,1.51,Fritos,True,Laysclassic
971.18,True,166658.375,4000,0.21,True,0.24,971.18,MrsFields,i,165687.195,117,0.45,Doritosranch,True,MrsFields
472.32,True,167639.295,4000,0.45,True,0.21,472.32,MilkyWay,u,167166.975,118,0.66,MilkyWay,True,100grand_small
316.335,True,168464.295,4000,1.63,True,-0.12,316.335,PringlesRed,u,168147.96,119,1.51,PringlesRed,True,Laysclassic
329.025,True,169302.265,4000,1.93,True,0.14,329.025,Funyuns_small,i,168973.24,120,2.07,Granolabar,True,Funyuns_small
100.985,True,169912.145,4000,1.97,True,0.64,100.985,PayDay,u,169811.16,121,2.61,PayDay,True,FigNewton_small
370.84,True,170790.11,4000,1.93,True,-0.16,370.84,CheesyDoritos,i,170419.27,122,1.77,Reeses,True,CheesyDoritos
29.03,True,171328.035,4000,1.19,True,1.07,29.03,RitzBitz2,u,171299.005,123,2.26,RitzBitz2,True,Hersheykisses
395.78,True,172280.97,4000,2.26,True,0.73,395.78,Laffytaffyred_one,u,171885.19,124,2.99,Laffytaffyred_one,True,starburst
184.375,True,172974.015,4000,0.91,True,1.05,184.375,Dots_one,u,172789.64,125,1.96,Dots_one,True,Milano
563.2,True,174046.055,4000,1.14,True,-0.05,563.2,Cheezits,u,173482.855,126,1.09,Cheezits,True,TeddyGrahamschocolate
1963.51,True,176513.935,4000,2.4,True,-1.12,1963.51,Cheetos,u,174550.425,127,1.28,Cheetos,True,Whatchamacallit
24.18,True,177046.745,4000,1.58,True,-0.13,24.18,Cheese_PeanutButterCrackers,i,177022.565,128,1.45,Fritos,True,Cheese_PeanutButterCrackers
74.14,True,177679.575,4000,2.24,True,0.64,74.14,MrGoodbar,i,177605.435,129,2.88,Almondjoy,True,MrGoodbar
48.345,True,178232.78,4000,2.9,True,-0.06,48.345,AnimalCrackers,u,178184.435,130,2.84,AnimalCrackers,True,Goldfish
166.57,True,178904.705,4000,1.2,True,1.06,166.57,Chocolate_mm,u,178738.135,131,2.26,Chocolate_mm,True,Laffytaffyred_one
779.075,True,180192.645,4000,1.63,True,-0.22,779.075,Oreos,i,179413.57,132,1.41,PringlesRed,True,Oreos
3328.015,True,184026.455,4000,1.65,True,0.69,3328.015,Crunch,u,180698.44,133,2.34,Crunch,True,Sourpatch
142.425,True,184674.505,4000,1.2,True,-0.01,142.425,Chocolate_mm,u,184532.08,134,1.19,Chocolate_mm,True,RitzBitz2
138.355,True,185321.825,4000,2.26,True,0.36,138.355,Snickers,i,185183.47,135,2.62,Laffytaffyred_one,True,Snickers
273.46,True,186103.385,4000,0.45,True,0.21,273.46,Toberlorone,i,185829.925,136,0.66,MrsFields,True,Toberlorone
320.37,True,186928.48,4000,1.04,True,-0.61,320.37,Nutterbutter,u,186608.11,137,0.43,Nutterbutter,True,PeanutMMs
2055.985,True,189488.37,4000,1.48,True,0.03,2055.985,Ghiradelli_milk_Almonds,i,187432.385,138,1.51,KitKat_small,True,Ghiradelli_milk_Almonds
290.745,True,190288.255,4000,0.41,True,1.17,290.745,Fritos,i,189997.51,139,1.58,Ruffles,True,Fritos
439.385,True,191236.245,4000,0.24,True,0.9,439.385,PopTartsStrawberry,u,190796.86,140,1.14,PopTartsStrawberry,True,Cheezits
2141.72,True,193884.17,4000,0.45,True,0.83,2141.72,MrsFields,u,191742.45,141,1.28,MrsFields,True,Whatchamacallit
4002.015,True,198392.42,4000,2.34,False,-0.08,4002.015,None,NaN,194390.405,142,2.26,Sourpatch,True,Laffytaffyred_one
47.13,True,198944.875,4000,2.28,True,-0.35,47.13,Butterfinger,u,198897.745,143,1.93,Butterfinger,True,Granolabar
180.82,True,199656.835,4000,2.88,True,-0.92,180.82,MrGoodbar,u,199476.015,144,1.96,MrGoodbar,True,WheatThins
613.44,True,200780.615,4000,1.65,True,0.31,613.44,WheatThins,i,200167.175,145,1.96,Crunch,True,WheatThins
108.43,True,201393.725,4000,1.5,True,-0.29,108.43,Riprolls,i,201285.295,146,1.21,Milkduds,True,Riprolls
2001.905,True,203904.6,4000,2.28,True,-1.07,2001.905,Riprolls,i,201902.695,147,1.21,Butterfinger,True,Riprolls
228.29,True,204641.565,4000,0.48,True,1.36,228.29,Twix,i,204413.275,148,1.84,FlamingCheetos,True,Twix
171.095,True,205321.54,4000,1.45,True,0.03,171.095,KitKat_small,i,205150.445,149,1.48,Cheese_PeanutButterCrackers,True,KitKat_small
438.31,True,206268.625,4000,2.4,True,-0.14,438.31,Cheetos,u,205830.315,150,2.26,Cheetos,True,Laffytaffyred_one
117.34,True,206892.465,4000,2.07,True,-0.56,117.34,Ghiradelli_milk_Almonds,i,206775.125,151,1.51,Funyuns_small,True,Ghiradelli_milk_Almonds
333.24,True,207734.43,4000,1.65,True,-1.2,333.24,MilkyWay,i,207401.19,152,0.45,Crunch,True,MilkyWay
4003.7,True,212247.065,4000,1.27,False,0.24,4003.7,None,NaN,208243.365,153,1.51,BabyRuth,True,Ghiradelli_milk_Almonds
4005.405,True,216758.38,4000,1.41,False,0.04,4005.405,None,NaN,212752.975,154,1.45,Oreos,True,Cheese_PeanutButterCrackers
230.835,True,217494.045,4000,0.45,True,0,230.835,MrsFields,u,217263.21,155,0.45,MrsFields,True,MilkyWay
986.67,True,218987.055,4000,2.26,True,0,986.67,Laffytaffyred_one,i,218000.385,156,2.26,Hersheykisses,True,Laffytaffyred_one
47.5,True,219540.975,4000,2.5,True,0.49,47.5,FamousAmos_small,u,219493.475,157,2.99,FamousAmos_small,True,starburst
4001.795,True,224076.925,4000,1.51,False,-0.1,4001.795,None,NaN,220075.13,158,1.41,Laysclassic,True,RiceKrispyTreat_small
4005.375,True,228588.225,4000,1.39,False,-0.73,4005.375,None,NaN,224582.85,159,0.66,Skittles,True,100grand_small
116.385,True,229210.545,4000,1.93,True,-0.45,116.385,KitKat_small,i,229094.16,160,1.48,Reeses,True,KitKat_small
819.72,True,230540.34,4000,2.99,True,-0.09,819.72,AnimalCrackers,i,229720.62,161,2.9,starburst,True,AnimalCrackers
1747.225,True,232796.455,4000,1.48,True,1.51,1747.225,starburst,i,231049.23,162,2.99,KitKat_small,True,starburst
72.19,True,233376.335,4000,1.21,True,0.07,72.19,Whatchamacallit,i,233304.145,163,1.28,Riprolls,True,Whatchamacallit
4005.08,True,237884.405,4000,1.84,False,0.66,4005.08,None,NaN,233879.325,164,2.5,Twix,True,FamousAmos_small
294.38,True,238682.065,4000,2.28,True,-0.02,294.38,Hersheykisses,i,238387.685,165,2.26,Butterfinger,True,Hersheykisses
4005.39,True,243194.6,4000,1.96,False,-0.03,4005.39,None,NaN,239189.21,166,1.93,Jollyranchergreen,True,Granolabar
1105.62,True,244805.935,4000,1.96,True,0.88,1105.62,Goldfish,i,243700.315,167,2.84,Jollyranchergreen,True,Goldfish
463.245,True,245778.88,4000,0.03,True,0.18,463.245,Doritosranch,i,245315.635,168,0.21,Hersheymilk_several,True,Doritosranch
3738.85,True,250026.7,4000,1.93,True,-1.27,3738.85,100grand_small,i,246287.85,169,0.66,Reeses,True,100grand_small
70.395,True,250605.365,4000,1.52,True,-0.01,70.395,Keeblerfudgestripes,u,250534.97,170,1.51,Keeblerfudgestripes,True,Laysclassic
1987.4,True,253105.44,4000,1.41,True,0,1987.4,ChipsAhoy_small,u,251118.04,171,1.41,ChipsAhoy_small,True,Oreos
1172.865,True,254786.36,4000,1.04,True,-0.19,1172.865,Slimjim,i,253613.495,172,0.85,Nutterbutter,True,Slimjim
4000.735,True,259295.645,4000,0.27,False,-0.06,4000.735,None,NaN,255294.91,173,0.21,TootsieRolls,True,Doritosranch
4005.37,True,263806.365,4000,0.24,False,-0.21,4005.37,None,NaN,259800.995,174,0.03,PopTartsStrawberry,True,Hersheymilk_several
4000.21,True,268312.655,4000,2.5,False,0.12,4000.21,None,NaN,264312.445,175,2.62,FamousAmos_small,True,Snickers
4001.82,True,272818.7,4000,0.45,False,0.69,4001.82,None,NaN,268816.88,176,1.14,MrsFields,True,Cheezits
4184.58,True,277506.59,4000,1.27,False,-0.06,4184.58,None,NaN,273322.01,177,1.21,BabyRuth,True,Riprolls
6030.92,True,284537.67,4000,2.9,False,-0.5,6030.92,None,NaN,278506.75,178,2.4,AnimalCrackers,True,Cheetos
6204.885,True,291711.935,4000,1.41,False,0,6204.885,None,NaN,285507.05,179,1.41,RiceKrispyTreat_small,True,ChipsAhoy_small
4999.69,True,297506.595,4000,1.93,False,0.69,4999.69,None,NaN,292506.905,180,2.62,Granolabar,True,Snickers
7498.08,True,306005.915,4000,0.45,False,1.32,7498.08,None,NaN,298507.835,181,1.77,MrsFields,True,CheesyDoritos
6652.47,True,313212.265,4000,1.39,False,0.02,6652.47,None,NaN,306559.795,182,1.41,Skittles,True,Oreos
6521.99,True,321673.41,4000,1.28,False,0.06,6521.99,None,NaN,315151.42,183,1.34,Whatchamacallit,True,3Musketeers
5694.59,True,328538.645,4000,0.45,False,-0.04,5694.59,None,NaN,322844.055,184,0.41,MilkyWay,True,Ruffles
4657.83,True,334624.915,4000,2.99,False,-0.15,4657.83,None,NaN,329967.085,185,2.84,starburst,True,Goldfish
6638.545,True,342513.305,4000,0.27,False,0.92,6638.545,None,NaN,335874.76,186,1.19,TootsieRolls,True,RitzBitz2
4651.965,True,348612.85,4000,1.93,False,-1.27,4651.965,None,NaN,343960.885,187,0.66,Granolabar,True,Toberlorone
6730.35,True,356682.245,4000,0.95,False,-0.54,6730.35,None,NaN,349951.895,188,0.41,Lollipopred,True,Ruffles
6739.875,True,364652.385,4000,1.14,False,1.1,6739.875,None,NaN,357912.51,189,2.24,Cheezits,True,Almondjoy
6434.435,True,372362.075,4000,1.41,False,0.07,6434.435,None,NaN,365927.64,190,1.48,RiceKrispyTreat_small,True,KitKat_small
6647.37,True,380696.34,4000,0.66,False,0.1,6647.37,None,NaN,374048.97,191,0.76,Toberlorone,True,Ghiradelli_milk
6883.005,True,388781.155,4000,1.96,False,0.11,6883.005,None,NaN,381898.15,192,2.07,Milano,True,Funyuns_small
6770.415,True,396633.165,4000,2.84,False,-0.77,6770.415,None,NaN,389862.75,193,2.07,Goldfish,True,Funyuns_small
6907.725,True,404730.19,4000,1.41,False,0.36,6907.725,None,NaN,397822.465,194,1.77,ChipsAhoy_small,True,CheesyDoritos
6896.635,True,412785.215,4000,1.21,False,-0.26,6896.635,None,NaN,405888.58,195,0.95,Riprolls,True,Lollipopred
6986.85,True,420823.16,4000,1.09,False,-0.64,6986.85,None,NaN,413836.31,196,0.45,TeddyGrahamschocolate,True,MilkyWay
7135.205,True,428866.655,4000,1.93,False,-0.16,7135.205,None,NaN,421731.45,197,1.77,Granolabar,True,CheesyDoritos
7127.265,True,436873.385,4000,1.96,False,0.94,7127.265,None,NaN,429746.12,198,2.9,Milano,True,AnimalCrackers
6978.11,True,444757.15,4000,0.43,False,1.2,6978.11,None,NaN,437779.04,199,1.63,PeanutMMs,True,PringlesRed
4708.88,True,450571.38,4000,2.88,False,-0.54,4708.88,None,NaN,445862.5,200,2.34,MrGoodbar,True,Sourpatch
6851.635,True,458780.675,4000,2.9,False,-0.64,6851.635,None,NaN,451929.04,201,2.26,AnimalCrackers,True,Hersheykisses
5719.635,True,465367.795,4000,1.84,False,0.13,5719.635,None,NaN,459648.16,202,1.97,Twix,True,PayDay
4000.485,True,471071.6,4000,2.07,False,0.17,4000.485,None,NaN,467071.115,203,2.24,Funyuns_small,True,Almondjoy
308.5,True,471886.05,4000,0.03,True,1.01,308.5,Hersheymilk_several,u,471577.55,204,1.04,Hersheymilk_several,True,Nutterbutter
204.985,True,472595.265,4000,1.41,True,0.1,204.985,Ghiradelli_milk_Almonds,i,472390.28,205,1.51,Oreos,True,Ghiradelli_milk_Almonds
252.85,True,473352.11,4000,0.21,True,0.88,252.85,Doritosranch,u,473099.26,206,1.09,Doritosranch,True,TeddyGrahamschocolate
246.22,True,474107.12,4000,1.65,True,0.12,246.22,CheesyDoritos,i,473860.9,207,1.77,Crunch,True,CheesyDoritos
217.81,True,474834.08,4000,1.96,True,0,217.81,Milano,u,474616.27,208,1.96,Milano,True,Jollyranchergreen
228.17,True,475570.99,4000,2.84,True,-1.43,228.17,Goldfish,u,475342.82,209,1.41,Goldfish,True,RiceKrispyTreat_small
