date,delta,maxTrialTime,receivedResponse,rsp,rt,selected,stimulus1,stimulus1Bid,stimulus1Loaded,stimulus2,stimulus2Bid,stimulus2Loaded,subjectID,trialDuration,trialEndTime,trialN,trialStartTime
2018-01-19 10:53:12,-0.12,4000,True,u,1084.8,Goldfish,Goldfish,2.04,True,FlamingCheetos,1.92,True,MDMMT_0015,1084.8,1457.585,0,372.785
2018-01-19 10:53:12,0.63,4000,True,i,114.55,Hersheymilk_several,Cheetos,5.96,True,Hersheymilk_several,6.59,True,MDMMT_0015,114.55,2079.445,1,1964.895
2018-01-19 10:53:12,-0.77,4000,True,i,97.12,Ghiradelli_milk_Almonds,Lollipopred,2.14,True,Ghiradelli_milk_Almonds,1.37,True,MDMMT_0015,97.12,2681.445,2,2584.325
2018-01-19 10:53:12,1.58,4000,True,i,99.175,Sourpatch,Hersheymilk_several,6.59,True,Sourpatch,8.17,True,MDMMT_0015,99.175,3285.315,3,3186.14
2018-01-19 10:53:12,5.65,4000,True,u,246.51,RiceKrispyTreat_small,RiceKrispyTreat_small,3.85,True,Chocolate_mm,9.5,True,MDMMT_0015,246.51,4037.455,4,3790.945
2018-01-19 10:53:12,2.13,4000,True,u,84.265,Nutterbutter,Nutterbutter,5.15,True,Milano,7.28,True,MDMMT_0015,84.265,4625.4,5,4541.135
2018-01-19 10:53:12,0.39,4000,True,u,7.71,Ghiradelli_milk,Ghiradelli_milk,1.46,False,Dots_one,1.85,False,MDMMT_0015,7.71,5137.185,6,5129.475
2018-01-19 10:53:12,-1.19,4000,False,NaN,4001.155,NaN,Ghiradelli_milk_Almonds,1.37,True,Whatchamacallit,0.18,True,MDMMT_0015,4001.155,9643.555,7,5642.4
2018-01-19 10:53:12,0.79,4000,False,NaN,4005.05,NaN,Hersheykisses,0.39,True,Laffytaffyred_one,1.18,True,MDMMT_0015,4005.05,14151.76,8,10146.71
2018-01-19 10:53:12,2.03,4000,False,NaN,4003.895,NaN,starburst,5.03,True,Twix,7.06,True,MDMMT_0015,4003.895,18660.24,9,14656.345
2018-01-19 10:53:12,-0.18,4000,False,NaN,4002.005,NaN,Oreos,4.57,True,Cheezits,4.39,True,MDMMT_0015,4002.005,23168.085,10,19166.08
2018-01-19 10:53:12,-0.82,4000,False,NaN,4005.155,NaN,CheesyDoritos,1.17,True,Jollyranchergreen,0.35,True,MDMMT_0015,4005.155,27677.545,11,23672.39
2018-01-19 10:53:12,-4.4,4000,False,NaN,4003.595,NaN,Oreos,4.57,True,Butterfinger,0.17,True,MDMMT_0015,4003.595,32181.975,12,28178.38
2018-01-19 10:53:12,-0.39,4000,False,NaN,4002.525,NaN,Funyuns_small,7.73,True,MilkyWay,7.34,True,MDMMT_0015,4002.525,36687.145,13,32684.62
2018-01-19 10:53:12,-0.11,4000,True,u,887.675,100grand_small,100grand_small,6.4,True,PeanutMMs,6.29,True,MDMMT_0015,887.675,38075.795,14,37188.12
2018-01-19 10:53:12,-0.78,4000,True,u,3.045,Laysclassic,Laysclassic,6.43,False,Almondjoy,5.65,False,MDMMT_0015,3.045,38608.595,15,38605.55
2018-01-19 10:53:12,0.58,4000,True,i,180.27,Nutterbutter,Oreos,4.57,True,Nutterbutter,5.15,True,MDMMT_0015,180.27,39296.76,16,39116.49
2018-01-19 10:53:12,0.57,4000,True,i,81.07,CheesyDoritos,AnimalCrackers,0.6,True,CheesyDoritos,1.17,True,MDMMT_0015,81.07,39883.68,17,39802.61
2018-01-19 10:53:12,-0.15,4000,True,u,94.47,Laffytaffyred_one,Laffytaffyred_one,1.18,True,Snickers,1.03,True,MDMMT_0015,94.47,40481.23,18,40386.76
2018-01-19 10:53:12,1.87,4000,True,u,118.62,Milkduds,Milkduds,3.78,True,Almondjoy,5.65,True,MDMMT_0015,118.62,41103.78,19,40985.16
2018-01-19 10:53:12,-0.75,4000,True,i,48.555,Dots_one,Fritos,2.6,True,Dots_one,1.85,True,MDMMT_0015,48.555,41658.61,20,41610.055
2018-01-19 10:53:12,0.36,4000,True,i,65.11,MrGoodbar,PringlesRed,2.57,True,MrGoodbar,2.93,True,MDMMT_0015,65.11,42230.59,21,42165.48
2018-01-19 10:53:12,5.12,4000,False,NaN,4003.31,NaN,Keeblerfudgestripes,0.84,True,Cheetos,5.96,True,MDMMT_0015,4003.31,46739.31,22,42736.0
2018-01-19 10:53:12,-0.16,4000,False,NaN,4004.655,NaN,KitKat_small,6.12,True,Cheetos,5.96,True,MDMMT_0015,4004.655,51245.46,23,47240.805
2018-01-19 10:53:12,1.01,4000,False,NaN,4004.37,NaN,FlamingCheetos,1.92,True,MrGoodbar,2.93,True,MDMMT_0015,4004.37,55754.555,24,51750.185
2018-01-19 10:53:12,0.03,4000,False,NaN,4005.3,NaN,Hersheymilk_several,6.59,True,WheatThins,6.62,True,MDMMT_0015,4005.3,60261.17,25,56255.87
2018-01-19 10:53:12,0.04,4000,False,NaN,4001.11,NaN,Jollyranchergreen,0.35,True,Hersheykisses,0.39,True,MDMMT_0015,4001.11,64767.725,26,60766.615
2018-01-19 10:53:12,1.15,4000,False,NaN,4001.685,NaN,Cheezits,4.39,True,Riprolls,5.54,True,MDMMT_0015,4001.685,69274.695,27,65273.01
2018-01-19 10:53:12,5.59,4000,False,NaN,4003.325,NaN,Cheezits,4.39,True,BabyRuth,9.98,True,MDMMT_0015,4003.325,73779.855,28,69776.53
2018-01-19 10:53:12,-0.51,4000,False,NaN,4000.23,NaN,Riprolls,5.54,True,starburst,5.03,True,MDMMT_0015,4000.23,78285.525,29,74285.295
2018-01-19 10:53:12,1.78,4000,False,NaN,4005.3,NaN,MilkyWay,7.34,True,Granolabar,9.12,True,MDMMT_0015,4005.3,82796.545,30,78791.245
2018-01-19 10:53:12,0.58,4000,False,NaN,4002.805,NaN,PringlesRed,2.57,True,PayDay,3.15,True,MDMMT_0015,4002.805,87305.035,31,83302.23
2018-01-19 10:53:13,-0.22,4000,False,NaN,4004.495,NaN,Milano,7.28,True,Twix,7.06,True,MDMMT_0015,4004.495,91810.75,32,87806.255
2018-01-19 10:53:13,-0.5,4000,False,NaN,4005.305,NaN,WheatThins,6.62,True,KitKat_small,6.12,True,MDMMT_0015,4005.305,96322.175,33,92316.87
2018-01-19 10:53:13,2.33,4000,False,NaN,4003.835,NaN,AnimalCrackers,0.6,True,MrGoodbar,2.93,True,MDMMT_0015,4003.835,100830.855,34,96827.02
2018-01-19 10:53:13,0.22,4000,False,NaN,4004.475,NaN,MrGoodbar,2.93,True,PayDay,3.15,True,MDMMT_0015,4004.475,105339.92,35,101335.445
2018-01-19 10:53:13,-1.06,4000,False,NaN,4004.555,NaN,Skittles,4.84,True,Milkduds,3.78,True,MDMMT_0015,4004.555,109850.465,36,105845.91
2018-01-19 10:53:13,1.74,4000,False,NaN,4004.865,NaN,Almondjoy,5.65,True,FamousAmos_small,7.39,True,MDMMT_0015,4004.865,114357.46,37,110352.595
2018-01-19 10:53:13,-0.08,4000,False,NaN,4002.69,NaN,Reeses,3.34,True,3Musketeers,3.26,True,MDMMT_0015,4002.69,118861.07,38,114858.38
2018-01-19 10:53:13,2.05,4000,False,NaN,4001.325,NaN,KitKat_small,6.12,True,Sourpatch,8.17,True,MDMMT_0015,4001.325,123363.465,39,119362.14
2018-01-19 10:53:13,1.11,4000,False,NaN,4005.315,NaN,Twix,7.06,True,Sourpatch,8.17,True,MDMMT_0015,4005.315,127871.67,40,123866.355
2018-01-19 10:53:13,1.46,4000,False,NaN,4005.125,NaN,Hersheykisses,0.39,True,Dots_one,1.85,True,MDMMT_0015,4005.125,132382.75,41,128377.625
2018-01-19 10:53:13,-1.17,4000,False,NaN,4005.38,NaN,Toberlorone,9.57,True,Crunch,8.4,True,MDMMT_0015,4005.38,136892.575,42,132887.195
2018-01-19 10:53:13,5.06,4000,False,NaN,4003.965,NaN,Ghiradelli_milk_Almonds,1.37,True,Laysclassic,6.43,True,MDMMT_0015,4003.965,141399.315,43,137395.35
2018-01-19 10:53:13,0.21,4000,False,NaN,4005.305,NaN,Hersheykisses,0.39,True,AnimalCrackers,0.6,True,MDMMT_0015,4005.305,145910.735,44,141905.43
2018-01-19 10:53:13,-0.22,4000,False,NaN,4001.505,NaN,Lollipopred,2.14,True,FlamingCheetos,1.92,True,MDMMT_0015,4001.505,150418.27,45,146416.765
2018-01-19 10:53:13,-0.14,4000,False,NaN,4005.32,NaN,Laysclassic,6.43,True,PeanutMMs,6.29,True,MDMMT_0015,4005.32,154929.01,46,150923.69
2018-01-19 10:53:13,0.7,4000,False,NaN,4004.805,NaN,Skittles,4.84,True,Riprolls,5.54,True,MDMMT_0015,4004.805,159439.22,47,155434.415
2018-01-19 10:53:13,-0.21,4000,False,NaN,4004.075,NaN,Hersheykisses,0.39,True,Whatchamacallit,0.18,True,MDMMT_0015,4004.075,163947.85,48,159943.775
2018-01-19 10:53:13,-0.18,4000,False,NaN,4002.735,NaN,Whatchamacallit,0.18,True,PopTartsStrawberry,0.0,True,MDMMT_0015,4002.735,168456.755,49,164454.02
2018-01-19 10:53:13,-0.46,4000,False,NaN,4002.195,NaN,FlamingCheetos,1.92,True,Ghiradelli_milk,1.46,True,MDMMT_0015,4002.195,172964.075,50,168961.88
2018-01-19 10:53:13,4.48,4000,False,NaN,4005.295,NaN,PopTartsStrawberry,0.0,True,RitzBitz2,4.48,True,MDMMT_0015,4005.295,177475.465,51,173470.17
2018-01-19 10:53:13,-2.72,4000,False,NaN,4000.94,NaN,Granolabar,9.12,True,100grand_small,6.4,True,MDMMT_0015,4000.94,181980.48,52,177979.54
2018-01-19 10:53:13,-0.21,4000,False,NaN,4004.765,NaN,Cheese_PeanutButterCrackers,0.21,True,PopTartsStrawberry,0.0,True,MDMMT_0015,4004.765,186490.095,53,182485.33
2018-01-19 10:53:13,0.18,4000,False,NaN,4000.71,NaN,Butterfinger,0.17,True,Jollyranchergreen,0.35,True,MDMMT_0015,4000.71,190996.565,54,186995.855
2018-01-19 10:53:13,0.06,4000,False,NaN,4001.485,NaN,Lollipopred,2.14,True,TootsieRolls,2.2,True,MDMMT_0015,4001.485,195500.025,55,191498.54
2018-01-19 10:53:13,0.28,4000,False,NaN,4002.845,NaN,Twix,7.06,True,MilkyWay,7.34,True,MDMMT_0015,4002.845,200004.085,56,196001.24
2018-01-19 10:53:13,-0.11,4000,False,NaN,4003.345,NaN,FamousAmos_small,7.39,True,Milano,7.28,True,MDMMT_0015,4003.345,204508.79,57,200505.445
2018-01-19 10:53:13,-0.38,4000,False,NaN,4000.405,NaN,Chocolate_mm,9.5,True,Granolabar,9.12,True,MDMMT_0015,4000.405,209011.1,58,205010.695
2018-01-19 10:53:13,-2.23,4000,False,NaN,4005.15,NaN,3Musketeers,3.26,True,Snickers,1.03,True,MDMMT_0015,4005.15,213518.45,59,209513.3
2018-01-19 10:53:13,-2.7,4000,False,NaN,4002.995,NaN,BabyRuth,9.98,True,Milano,7.28,True,MDMMT_0015,4002.995,218027.6,60,214024.605
2018-01-19 10:53:13,-1.11,4000,False,NaN,4005.305,NaN,PayDay,3.15,True,Goldfish,2.04,True,MDMMT_0015,4005.305,222535.205,61,218529.9
2018-01-19 10:53:13,5.59,4000,False,NaN,4004.98,NaN,TeddyGrahamschocolate,3.98,True,Toberlorone,9.57,True,MDMMT_0015,4004.98,227044.085,62,223039.105
2018-01-19 10:53:13,0.51,4000,False,NaN,4005.305,NaN,Reeses,3.34,True,RiceKrispyTreat_small,3.85,True,MDMMT_0015,4005.305,231555.66,63,227550.355
2018-01-19 10:53:13,-0.39,4000,False,NaN,4001.485,NaN,Riprolls,5.54,True,Nutterbutter,5.15,True,MDMMT_0015,4001.485,236061.36,64,232059.875
2018-01-19 10:53:13,5.12,4000,False,NaN,4004.59,NaN,CheesyDoritos,1.17,True,PeanutMMs,6.29,True,MDMMT_0015,4004.59,240569.49,65,236564.9
2018-01-19 10:53:13,2.08,4000,False,NaN,4005.305,NaN,Oreos,4.57,True,MrsFields,6.65,True,MDMMT_0015,4005.305,245080.875,66,241075.57
2018-01-19 10:53:13,4.79,4000,False,NaN,4004.51,NaN,Fritos,2.6,True,FamousAmos_small,7.39,True,MDMMT_0015,4004.51,249590.325,67,245585.815
2018-01-19 10:53:13,0.44,4000,False,NaN,4002.815,NaN,Cheetos,5.96,True,100grand_small,6.4,True,MDMMT_0015,4002.815,254097.18,68,250094.365
2018-01-19 10:53:13,0.48,4000,False,NaN,4001.795,NaN,Ghiradelli_milk_Almonds,1.37,True,Dots_one,1.85,True,MDMMT_0015,4001.795,258604.95,69,254603.155
2018-01-19 10:53:13,0.19,4000,False,NaN,4005.27,NaN,Laysclassic,6.43,True,WheatThins,6.62,True,MDMMT_0015,4005.27,263116.345,70,259111.075
2018-01-19 10:53:13,2.14,4000,False,NaN,4004.86,NaN,Skittles,4.84,True,Ruffles,6.98,True,MDMMT_0015,4004.86,267627.25,71,263622.39
2018-01-19 10:53:13,0.48,4000,False,NaN,4004.855,NaN,Chocolate_mm,9.5,True,BabyRuth,9.98,True,MDMMT_0015,4004.855,272137.25,72,268132.395
2018-01-19 10:53:13,-0.19,4000,False,NaN,4002.025,NaN,MrsFields,6.65,True,Doritosranch,6.46,True,MDMMT_0015,4002.025,276641.6,73,272639.575
2018-01-19 10:53:13,-1.33,4000,False,NaN,4000.645,NaN,Chocolate_mm,9.5,True,Sourpatch,8.17,True,MDMMT_0015,4000.645,281148.265,74,277147.62
2018-01-19 10:53:13,-1.5,4000,True,u,2302.245,FlamingCheetos,FlamingCheetos,1.92,True,SourSkittles,0.42,True,MDMMT_0015,2302.245,283955.5,75,281653.255
2018-01-19 10:53:13,-1.78,4000,True,i,42.11,WheatThins,Crunch,8.4,True,WheatThins,6.62,True,MDMMT_0015,42.11,284512.25,76,284470.14
2018-01-19 10:53:13,0.33,4000,True,u,22.29,Twix,Twix,7.06,True,FamousAmos_small,7.39,True,MDMMT_0015,22.29,285040.25,77,285017.96
2018-01-19 10:53:13,-2.6,4000,True,i,46.13,Laffytaffyred_one,Milkduds,3.78,True,Laffytaffyred_one,1.18,True,MDMMT_0015,46.13,285593.2,78,285547.07
2018-01-19 10:53:13,-5.05,4000,True,u,3790.285,Hersheymilk_several,Hersheymilk_several,6.59,True,FigNewton_small,1.54,True,MDMMT_0015,3790.285,289892.21,79,286101.925
2018-01-19 10:53:13,0.73,4000,False,NaN,4001.875,NaN,TootsieRolls,2.2,True,MrGoodbar,2.93,True,MDMMT_0015,4001.875,294405.14,80,290403.265
2018-01-19 10:53:13,1.19,4000,False,NaN,4005.305,NaN,Jollyranchergreen,0.35,True,FigNewton_small,1.54,True,MDMMT_0015,4005.305,298915.345,81,294910.04
2018-01-19 10:53:13,0.19,4000,False,NaN,4003.645,NaN,Skittles,4.84,True,starburst,5.03,True,MDMMT_0015,4003.645,303424.65,82,299421.005
2018-01-19 10:53:13,4.58,4000,False,NaN,4004.885,NaN,PayDay,3.15,True,Funyuns_small,7.73,True,MDMMT_0015,4004.885,307930.825,83,303925.94
2018-01-19 10:53:13,-2.48,4000,False,NaN,4005.37,NaN,RiceKrispyTreat_small,3.85,True,Ghiradelli_milk_Almonds,1.37,True,MDMMT_0015,4005.37,312442.18,84,308436.81
2018-01-19 10:53:13,0.07,4000,False,NaN,4005.315,NaN,Milkduds,3.78,True,RiceKrispyTreat_small,3.85,True,MDMMT_0015,4005.315,316950.645,85,312945.33
2018-01-19 10:53:13,1.17,4000,False,NaN,4004.69,NaN,PopTartsStrawberry,0.0,True,CheesyDoritos,1.17,True,MDMMT_0015,4004.69,321456.51,86,317451.82
2018-01-19 10:53:13,-0.01,4000,True,u,1691.16,Laffytaffyred_one,Laffytaffyred_one,1.18,True,CheesyDoritos,1.17,True,MDMMT_0015,1691.16,323653.415,87,321962.255
2018-01-19 10:53:13,5.32,4000,True,i,64.665,ChipsAhoy_small,AnimalCrackers,0.6,True,ChipsAhoy_small,5.92,True,MDMMT_0015,64.665,324235.145,88,324170.48
2018-01-19 10:53:13,0.2,4000,True,i,77.3050000001,KitKat_small,ChipsAhoy_small,5.92,True,KitKat_small,6.12,True,MDMMT_0015,77.3050000001,324839.005,89,324761.7
2018-01-19 10:53:13,-0.06,4000,True,u,8.59499999997,MrsFields,MrsFields,6.65,True,Hersheymilk_several,6.59,True,MDMMT_0015,8.59499999997,325355.0,90,325346.405
2018-01-19 10:53:13,-1.18,4000,True,i,44.085,RiceKrispyTreat_small,starburst,5.03,True,RiceKrispyTreat_small,3.85,True,MDMMT_0015,44.085,325907.07,91,325862.985
2018-01-19 10:53:13,-5.15,4000,True,u,13.775,Riprolls,Riprolls,5.54,True,Hersheykisses,0.39,True,MDMMT_0015,13.775,326463.09,92,326449.315
2018-01-19 10:53:13,0.74,4000,True,u,150.285,Ghiradelli_milk,Ghiradelli_milk,1.46,True,TootsieRolls,2.2,True,MDMMT_0015,150.285,327175.93,93,327025.645
2018-01-19 10:53:13,2.14,4000,True,i,98.115,WheatThins,RitzBitz2,4.48,True,WheatThins,6.62,True,MDMMT_0015,98.115,327778.025,94,327679.91
2018-01-19 10:53:13,0.82,4000,True,i,78.375,Snickers,Cheese_PeanutButterCrackers,0.21,True,Snickers,1.03,True,MDMMT_0015,78.375,328361.825,95,328283.45
2018-01-19 10:53:13,0.52,4000,True,u,1.87,3Musketeers,3Musketeers,3.26,True,Milkduds,3.78,True,MDMMT_0015,1.87,328873.98,96,328872.11
2018-01-19 10:53:13,-0.41,4000,True,i,13.535,TeddyGrahamschocolate,Cheezits,4.39,True,TeddyGrahamschocolate,3.98,True,MDMMT_0015,13.535,329391.795,97,329378.26
2018-01-19 10:53:13,-1.17,4000,True,u,2546.265,TootsieRolls,TootsieRolls,2.2,True,Snickers,1.03,True,MDMMT_0015,2546.265,332501.855,98,329955.59
2018-01-19 10:53:13,-1.98,4000,True,i,9.90499999997,TeddyGrahamschocolate,Cheetos,5.96,True,TeddyGrahamschocolate,3.98,True,MDMMT_0015,9.90499999997,333024.63,99,333014.725
2018-01-19 10:53:13,1.75,4000,True,u,37.57,Butterfinger,Butterfinger,0.17,True,FlamingCheetos,1.92,True,MDMMT_0015,37.57,333568.66,100,333531.09
2018-01-19 10:53:13,-4.77,4000,True,u,84.88,WheatThins,WheatThins,6.62,True,Dots_one,1.85,True,MDMMT_0015,84.88,334156.785,101,334071.905
2018-01-19 10:53:13,2.52,4000,True,i,1906.72,TeddyGrahamschocolate,Ghiradelli_milk,1.46,True,TeddyGrahamschocolate,3.98,True,MDMMT_0015,1906.72,336572.505,102,334665.785
2018-01-19 10:53:13,0.06,4000,True,u,56.44,100grand_small,100grand_small,6.4,True,Doritosranch,6.46,True,MDMMT_0015,56.44,337135.51,103,337079.07
2018-01-19 10:53:13,5.06,4000,True,i,20.415,Crunch,Reeses,3.34,True,Crunch,8.4,True,MDMMT_0015,20.415,337663.605,104,337643.19
2018-01-19 10:53:13,-4.75,4000,True,u,291.975,Slimjim,Slimjim,7.68,True,MrGoodbar,2.93,True,MDMMT_0015,291.975,338459.585,105,338167.61
2018-01-19 10:53:13,0.31,4000,True,u,73.1200000001,FigNewton_small,FigNewton_small,1.54,True,Dots_one,1.85,True,MDMMT_0015,73.1200000001,339036.35,106,338963.23
2018-01-19 10:53:13,-0.49,4000,True,i,2.72000000003,Slimjim,Sourpatch,8.17,True,Slimjim,7.68,True,MDMMT_0015,2.72000000003,339554.43,107,339551.71
2018-01-19 10:53:13,4.77,4000,True,u,31.8700000001,PringlesRed,PringlesRed,2.57,True,MilkyWay,7.34,True,MDMMT_0015,31.8700000001,340094.3,108,340062.43
2018-01-19 10:53:13,2.2,4000,True,u,6.95999999996,Reeses,Reeses,3.34,True,Riprolls,5.54,True,MDMMT_0015,6.95999999996,340664.275,109,340657.315
2018-01-19 10:53:13,0.64,4000,True,i,7.67499999999,TeddyGrahamschocolate,Reeses,3.34,True,TeddyGrahamschocolate,3.98,True,MDMMT_0015,7.67499999999,341177.265,110,341169.59
2018-01-19 10:53:13,-2.17,4000,True,u,272.705,Reeses,Reeses,3.34,True,CheesyDoritos,1.17,True,MDMMT_0015,272.705,341953.365,111,341680.66
2018-01-19 10:53:14,0.4,4000,True,i,20.875,Slimjim,Milano,7.28,True,Slimjim,7.68,True,MDMMT_0015,20.875,342483.28,112,342462.405
2018-01-19 10:53:14,0.33,4000,True,u,14.97,MrsFields,MrsFields,6.65,True,Ruffles,6.98,True,MDMMT_0015,14.97,343048.335,113,343033.365
2018-01-19 10:53:14,1.01,4000,True,i,207.845,Laffytaffyred_one,Butterfinger,0.17,True,Laffytaffyred_one,1.18,True,MDMMT_0015,207.845,343760.305,114,343552.46
2018-01-19 10:53:14,-1.76,4000,False,NaN,4051.625,NaN,Slimjim,7.68,True,ChipsAhoy_small,5.92,True,MDMMT_0015,4051.625,348321.97,115,344270.345
2018-01-19 10:53:14,-0.07,4000,False,NaN,5645.66,NaN,SourSkittles,0.42,True,Jollyranchergreen,0.35,True,MDMMT_0015,5645.66,354954.49,116,349308.83
2018-01-19 10:53:14,-0.55,4000,False,NaN,4999.9,NaN,PayDay,3.15,True,Fritos,2.6,True,MDMMT_0015,4999.9,361308.305,117,356308.405
2018-01-19 10:53:14,1.86,4000,False,NaN,5008.205,NaN,Whatchamacallit,0.18,True,Goldfish,2.04,True,MDMMT_0015,5008.205,367365.005,118,362356.8
2018-01-19 10:53:14,-3.11,4000,False,NaN,4902.41,NaN,Toberlorone,9.57,True,Doritosranch,6.46,True,MDMMT_0015,4902.41,373308.26,119,368405.85
2018-01-19 10:53:14,-4.82,4000,False,NaN,4752.14,NaN,starburst,5.03,True,Cheese_PeanutButterCrackers,0.21,True,MDMMT_0015,4752.14,379308.32,120,374556.18
2018-01-19 10:53:14,0.17,4000,False,NaN,5113.995,NaN,Ghiradelli_milk_Almonds,1.37,True,FigNewton_small,1.54,True,MDMMT_0015,5113.995,385422.715,121,380308.72
2018-01-19 10:53:14,0.33,4000,False,NaN,4914.355,NaN,Keeblerfudgestripes,0.84,True,CheesyDoritos,1.17,True,MDMMT_0015,4914.355,391404.325,122,386489.97
2018-01-19 10:53:14,0.5,4000,False,NaN,4998.495,NaN,TeddyGrahamschocolate,3.98,True,RitzBitz2,4.48,True,MDMMT_0015,4998.495,397308.05,123,392309.555
2018-01-19 10:53:14,-0.66,4000,False,NaN,4752.1,NaN,Keeblerfudgestripes,0.84,True,Whatchamacallit,0.18,True,MDMMT_0015,4752.1,403308.475,124,398556.375
2018-01-19 10:53:14,-2.11,4000,False,NaN,4999.51,NaN,Chocolate_mm,9.5,True,FamousAmos_small,7.39,True,MDMMT_0015,4999.51,409308.215,125,404308.705
2018-01-19 10:53:14,1.12,4000,False,NaN,4999.825,NaN,Milano,7.28,True,Crunch,8.4,True,MDMMT_0015,4999.825,415551.785,126,410551.96
2018-01-19 10:53:14,-2.51,4000,False,NaN,4872.34,NaN,Toberlorone,9.57,True,Twix,7.06,True,MDMMT_0015,4872.34,421308.14,127,416435.8
2018-01-19 10:53:14,4.91,4000,False,NaN,4920.305,NaN,3Musketeers,3.26,True,Sourpatch,8.17,True,MDMMT_0015,4920.305,427308.25,128,422387.945
2018-01-19 10:53:14,-4.66,4000,False,NaN,4821.58,NaN,Skittles,4.84,True,Whatchamacallit,0.18,True,MDMMT_0015,4821.58,433343.605,129,428522.025
2018-01-19 10:53:14,-2.47,4000,False,NaN,4907.07,NaN,Granolabar,9.12,True,MrsFields,6.65,True,MDMMT_0015,4907.07,439308.18,130,434401.11
2018-01-19 10:53:14,1.25,4000,False,NaN,4821.435,NaN,Laysclassic,6.43,True,Slimjim,7.68,True,MDMMT_0015,4821.435,445308.295,131,440486.86
2018-01-19 10:53:14,1.17,4000,False,NaN,5047.96,NaN,TeddyGrahamschocolate,3.98,True,Nutterbutter,5.15,True,MDMMT_0015,5047.96,451432.63,132,446384.67
2018-01-19 10:53:14,1.05,4000,False,NaN,4860.75,NaN,PeanutMMs,6.29,True,MilkyWay,7.34,True,MDMMT_0015,4860.75,457352.37,133,452491.62
2018-01-19 10:53:14,0.37,4000,False,NaN,4900.44,NaN,ChipsAhoy_small,5.92,True,PeanutMMs,6.29,True,MDMMT_0015,4900.44,463308.655,134,458408.215
2018-01-19 10:53:14,-1.91,4000,False,NaN,4753.585,NaN,RitzBitz2,4.48,True,PringlesRed,2.57,True,MDMMT_0015,4753.585,469308.275,135,464554.69
2018-01-19 10:53:14,1.85,4000,False,NaN,4999.24,NaN,Jollyranchergreen,0.35,True,TootsieRolls,2.2,True,MDMMT_0015,4999.24,475308.245,136,470309.005
2018-01-19 10:53:14,0.47,4000,False,NaN,5005.055,NaN,Almondjoy,5.65,True,KitKat_small,6.12,True,MDMMT_0015,5005.055,481557.315,137,476552.26
2018-01-19 10:53:14,2.18,4000,False,NaN,4975.09,NaN,Hersheykisses,0.39,True,PringlesRed,2.57,True,MDMMT_0015,4975.09,487308.24,138,482333.15
2018-01-19 10:53:14,-0.45,4000,False,NaN,4758.345,NaN,Toberlorone,9.57,True,Granolabar,9.12,True,MDMMT_0015,4758.345,493308.23,139,488549.885
2018-01-19 10:53:14,1.44,4000,False,NaN,4999.275,NaN,AnimalCrackers,0.6,True,Goldfish,2.04,True,MDMMT_0015,4999.275,499308.12,140,494308.845
2018-01-19 10:53:14,-0.09,4000,False,NaN,4757.02,NaN,Oreos,4.57,True,RitzBitz2,4.48,True,MDMMT_0015,4757.02,505308.715,141,500551.695
2018-01-19 10:53:14,0.31,4000,True,u,3767.65,Almondjoy,Almondjoy,5.65,True,Cheetos,5.96,True,MDMMT_0015,3767.65,510076.44,142,506308.79
2018-01-19 10:53:14,2.18,4000,True,i,25.1850000001,Fritos,SourSkittles,0.42,True,Fritos,2.6,True,MDMMT_0015,25.1850000001,510608.32,143,510583.135
2018-01-19 10:53:14,0.59,4000,True,i,141.745,RiceKrispyTreat_small,3Musketeers,3.26,True,RiceKrispyTreat_small,3.85,True,MDMMT_0015,141.745,511305.25,144,511163.505
2018-01-19 10:53:14,-1.03,4000,True,u,72.325,PringlesRed,PringlesRed,2.57,True,FigNewton_small,1.54,True,MDMMT_0015,72.325,511886.27,145,511813.945
2018-01-19 10:53:14,-2.31,4000,True,i,137.42,Keeblerfudgestripes,PayDay,3.15,True,Keeblerfudgestripes,0.84,True,MDMMT_0015,137.42,512537.32,146,512399.9
2018-01-19 10:53:14,4.94,4000,True,i,139.17,Ruffles,Goldfish,2.04,True,Ruffles,6.98,True,MDMMT_0015,139.17,513181.275,147,513042.105
2018-01-19 10:53:14,-1.23,4000,True,i,11.93,Reeses,Oreos,4.57,True,Reeses,3.34,True,MDMMT_0015,11.93,513701.305,148,513689.375
2018-01-19 10:53:14,0.05,4000,True,i,27.405,FamousAmos_small,MilkyWay,7.34,True,FamousAmos_small,7.39,True,MDMMT_0015,27.405,514233.34,149,514205.935
2018-01-19 10:53:14,-0.27,4000,True,i,91.49,Almondjoy,ChipsAhoy_small,5.92,True,Almondjoy,5.65,True,MDMMT_0015,91.49,514875.12,150,514783.63
2018-01-19 10:53:14,2.52,4000,True,i,105.415,Chocolate_mm,Ruffles,6.98,True,Chocolate_mm,9.5,True,MDMMT_0015,105.415,515483.15,151,515377.735
2018-01-19 10:53:14,-2.25,4000,False,NaN,4000.69,NaN,BabyRuth,9.98,True,Funyuns_small,7.73,True,MDMMT_0015,4000.69,519986.305,152,515985.615
2018-01-19 10:53:14,0.19,4000,False,NaN,4002.505,NaN,Keeblerfudgestripes,0.84,True,Snickers,1.03,True,MDMMT_0015,4002.505,524491.425,153,520488.92
2018-01-19 10:53:14,-4.73,4000,False,NaN,4002.705,NaN,MrsFields,6.65,True,FlamingCheetos,1.92,True,MDMMT_0015,4002.705,528999.92,154,524997.215
2018-01-19 10:53:14,-0.39,4000,False,NaN,4005.355,NaN,Ruffles,6.98,True,Hersheymilk_several,6.59,True,MDMMT_0015,4005.355,533511.295,155,529505.94
2018-01-19 10:53:14,0.16,4000,False,NaN,4003.57,NaN,Goldfish,2.04,True,TootsieRolls,2.2,True,MDMMT_0015,4003.57,538016.165,156,534012.595
2018-01-19 10:53:14,0.34,4000,False,NaN,4001.0,NaN,Keeblerfudgestripes,0.84,True,Laffytaffyred_one,1.18,True,MDMMT_0015,4001.0,542521.995,157,538520.995
2018-01-19 10:53:14,4.8,4000,False,NaN,4004.24,NaN,Jollyranchergreen,0.35,True,Nutterbutter,5.15,True,MDMMT_0015,4004.24,547032.39,158,543028.15
2018-01-19 10:53:14,2.07,4000,False,NaN,4002.985,NaN,RiceKrispyTreat_small,3.85,True,ChipsAhoy_small,5.92,True,MDMMT_0015,4002.985,551541.025,159,547538.04
2018-01-19 10:53:14,1.91,4000,False,NaN,4005.36,NaN,MrGoodbar,2.93,True,Skittles,4.84,True,MDMMT_0015,4005.36,556052.3,160,552046.94
2018-01-19 10:53:14,-1.27,4000,False,NaN,4005.3,NaN,Funyuns_small,7.73,True,Doritosranch,6.46,True,MDMMT_0015,4005.3,560563.29,161,556557.99
2018-01-19 10:53:14,1.88,4000,False,NaN,4005.315,NaN,PayDay,3.15,True,starburst,5.03,True,MDMMT_0015,4005.315,565070.77,162,561065.455
2018-01-19 10:53:14,0.23,4000,False,NaN,4004.025,NaN,Sourpatch,8.17,True,Crunch,8.4,True,MDMMT_0015,4004.025,569580.885,163,565576.86
2018-01-19 10:53:14,-0.43,4000,False,NaN,4005.39,NaN,AnimalCrackers,0.6,True,Butterfinger,0.17,True,MDMMT_0015,4005.39,574087.635,164,570082.245
2018-01-19 10:53:14,1.8,4000,False,NaN,4001.03,NaN,Riprolls,5.54,True,MilkyWay,7.34,True,MDMMT_0015,4001.03,578594.77,165,574593.74
2018-01-19 10:53:14,-0.5,4000,False,NaN,4001.25,NaN,Goldfish,2.04,True,FigNewton_small,1.54,True,MDMMT_0015,4001.25,583100.46,166,579099.21
2018-01-19 10:53:14,-0.03,4000,True,u,3251.945,Fritos,Fritos,2.6,True,PringlesRed,2.57,True,MDMMT_0015,3251.945,586858.555,167,583606.61
2018-01-19 10:53:14,4.92,4000,True,i,13.085,Twix,Lollipopred,2.14,True,Twix,7.06,True,MDMMT_0015,13.085,587389.42,168,587376.335
2018-01-19 10:53:14,-0.58,4000,True,u,8.27500000002,Ruffles,Ruffles,6.98,True,100grand_small,6.4,True,MDMMT_0015,8.27500000002,587961.19,169,587952.915
2018-01-19 10:53:14,5.09,4000,True,i,77.4399999999,KitKat_small,Snickers,1.03,True,KitKat_small,6.12,True,MDMMT_0015,77.4399999999,588545.14,170,588467.7
2018-01-19 10:53:14,0.55,4000,True,u,35.4750000001,RitzBitz2,RitzBitz2,4.48,True,starburst,5.03,True,MDMMT_0015,35.4750000001,589089.355,171,589053.88
2018-01-19 10:53:14,-5.22,4000,True,i,119.08,Laffytaffyred_one,100grand_small,6.4,True,Laffytaffyred_one,1.18,True,MDMMT_0015,119.08,589717.27,172,589598.19
2018-01-19 10:53:14,-0.09,4000,True,u,11.0299999999,Ghiradelli_milk,Ghiradelli_milk,1.46,True,Ghiradelli_milk_Almonds,1.37,True,MDMMT_0015,11.0299999999,590237.26,173,590226.23
2018-01-19 10:53:14,-0.05,4000,True,i,160.465,Slimjim,Funyuns_small,7.73,True,Slimjim,7.68,True,MDMMT_0015,160.465,590905.22,174,590744.755
2018-01-19 10:53:14,0.03,4000,True,u,103.84,Whatchamacallit,Whatchamacallit,0.18,True,Cheese_PeanutButterCrackers,0.21,True,MDMMT_0015,103.84,591518.235,175,591414.395
2018-01-19 10:53:14,-2.85,4000,True,i,151.42,FigNewton_small,Cheezits,4.39,True,FigNewton_small,1.54,True,MDMMT_0015,151.42,592176.2,176,592024.78
2018-01-19 10:53:14,0.86,4000,True,u,43.01,Granolabar,Granolabar,9.12,True,BabyRuth,9.98,True,MDMMT_0015,43.01,592723.145,177,592680.135
2018-01-19 10:53:14,-0.61,4000,True,i,0.155000000028,SourSkittles,Snickers,1.03,True,SourSkittles,0.42,True,MDMMT_0015,0.155000000028,593258.035,178,593257.88
2018-01-19 10:53:14,0.41,4000,True,u,55.28,Toberlorone,Toberlorone,9.57,True,BabyRuth,9.98,True,MDMMT_0015,55.28,593821.95,179,593766.67
2018-01-19 10:53:14,1.89,4000,True,u,37.595,3Musketeers,3Musketeers,3.26,True,Nutterbutter,5.15,True,MDMMT_0015,37.595,594382.105,180,594344.51
2018-01-19 10:53:14,-0.61,4000,True,u,25.5999999999,Cheezits,Cheezits,4.39,True,Milkduds,3.78,True,MDMMT_0015,25.5999999999,594953.975,181,594928.375
2018-01-19 10:53:14,3.39,4000,True,u,91.4400000001,Hersheymilk_several,Hersheymilk_several,6.59,True,BabyRuth,9.98,True,MDMMT_0015,91.4400000001,595601.97,182,595510.53
2018-01-19 10:53:14,-5.23,4000,True,i,27.4,SourSkittles,Almondjoy,5.65,True,SourSkittles,0.42,True,MDMMT_0015,27.4,596137.93,183,596110.53
2018-01-19 10:53:14,-0.17,4000,True,i,61.24,PopTartsStrawberry,Butterfinger,0.17,True,PopTartsStrawberry,0.0,True,MDMMT_0015,61.24,596753.96,184,596692.72
2018-01-19 10:53:14,1.85,4000,True,u,37.6849999998,PopTartsStrawberry,PopTartsStrawberry,0.0,True,Dots_one,1.85,True,MDMMT_0015,37.6849999998,597313.985,185,597276.3
2018-01-19 10:53:14,2.11,4000,True,i,35.96,Crunch,PeanutMMs,6.29,True,Crunch,8.4,True,MDMMT_0015,35.96,597897.775,186,597861.815
2018-01-19 10:53:14,1.89,4000,True,i,58.01,Toberlorone,Slimjim,7.68,True,Toberlorone,9.57,True,MDMMT_0015,58.01,598505.93,187,598447.92
2018-01-19 10:53:14,0.67,4000,True,i,28.5199999999,Crunch,Funyuns_small,7.73,True,Crunch,8.4,True,MDMMT_0015,28.5199999999,599039.85,188,599011.33
2018-01-19 10:53:14,1.97,4000,True,u,120.89,Fritos,Fritos,2.6,True,Oreos,4.57,True,MDMMT_0015,120.89,599664.875,189,599543.985
2018-01-19 10:53:14,1.22,4000,True,i,144.235,RitzBitz2,3Musketeers,3.26,True,RitzBitz2,4.48,True,MDMMT_0015,144.235,600318.635,190,600174.4
2018-01-19 10:53:14,1.77,4000,True,u,75.26,Cheetos,Cheetos,5.96,True,Funyuns_small,7.73,True,MDMMT_0015,75.26,600896.595,191,600821.335
2018-01-19 10:53:14,-0.42,4000,True,i,12.4299999999,PopTartsStrawberry,SourSkittles,0.42,True,PopTartsStrawberry,0.0,True,MDMMT_0015,12.4299999999,601414.785,192,601402.355
2018-01-19 10:53:15,-3.07,4000,True,u,19.24,Chocolate_mm,Chocolate_mm,9.5,True,Laysclassic,6.43,True,MDMMT_0015,19.24,601937.545,193,601918.305
2018-01-19 10:53:15,-5.0,4000,True,u,21.1950000001,Doritosranch,Doritosranch,6.46,True,Ghiradelli_milk,1.46,True,MDMMT_0015,21.1950000001,602518.74,194,602497.545
2018-01-19 10:53:15,0.46,4000,True,u,55.49,Lollipopred,Lollipopred,2.14,True,Fritos,2.6,True,MDMMT_0015,55.49,603121.705,195,603066.215
2018-01-19 10:53:15,-0.31,4000,True,u,90.53,Nutterbutter,Nutterbutter,5.15,True,Skittles,4.84,True,MDMMT_0015,90.53,603729.71,196,603639.18
2018-01-19 10:53:15,5.34,4000,True,u,71.5649999999,Milkduds,Milkduds,3.78,True,Granolabar,9.12,True,MDMMT_0015,71.5649999999,604310.475,197,604238.91
2018-01-19 10:53:15,-1.25,4000,True,u,90.67,Ghiradelli_milk,Ghiradelli_milk,1.46,True,Cheese_PeanutButterCrackers,0.21,True,MDMMT_0015,90.67,604904.655,198,604813.985
2018-01-19 10:53:15,-0.36,4000,True,u,63.8450000001,MrsFields,MrsFields,6.65,True,PeanutMMs,6.29,True,MDMMT_0015,63.8450000001,605477.67,199,605413.825
2018-01-19 10:53:15,-0.18,4000,True,u,83.03,AnimalCrackers,AnimalCrackers,0.6,True,SourSkittles,0.42,True,MDMMT_0015,83.03,606066.435,200,605983.405
2018-01-19 10:53:15,-0.36,4000,True,u,96.92,Ruffles,Ruffles,6.98,True,WheatThins,6.62,True,MDMMT_0015,96.92,606667.525,201,606570.605
2018-01-19 10:53:15,-1.3,4000,True,u,105.11,Lollipopred,Lollipopred,2.14,True,Keeblerfudgestripes,0.84,True,MDMMT_0015,105.11,607276.51,202,607171.4
2018-01-19 10:53:15,-0.54,4000,True,i,13.9400000001,ChipsAhoy_small,Doritosranch,6.46,True,ChipsAhoy_small,5.92,True,MDMMT_0015,13.9400000001,607797.3,203,607783.36
2018-01-19 10:53:15,1.73,4000,True,i,143.58,KitKat_small,Cheezits,4.39,True,KitKat_small,6.12,True,MDMMT_0015,143.58,608499.295,204,608355.715
2018-01-19 10:53:15,5.08,4000,True,u,77.0850000001,TootsieRolls,TootsieRolls,2.2,True,Milano,7.28,True,MDMMT_0015,77.0850000001,609082.465,205,609005.38
2018-01-19 10:53:15,0.99,4000,True,i,54.26,FamousAmos_small,100grand_small,6.4,True,FamousAmos_small,7.39,True,MDMMT_0015,54.26,609644.44,206,609590.18
2018-01-19 10:53:15,0.03,4000,True,u,7.54500000004,Laysclassic,Laysclassic,6.43,True,Doritosranch,6.46,True,MDMMT_0015,7.54500000004,610157.175,207,610149.63
2018-01-19 10:53:15,-1.93,4000,True,u,83.2750000001,Lollipopred,Lollipopred,2.14,True,Cheese_PeanutButterCrackers,0.21,True,MDMMT_0015,83.2750000001,610745.145,208,610661.87
2018-01-19 10:53:15,-0.04,4000,True,u,58.3649999999,Cheese_PeanutButterCrackers,Cheese_PeanutButterCrackers,0.21,True,Butterfinger,0.17,True,MDMMT_0015,58.3649999999,611306.36,209,611247.995
