date,delta,maxTrialTime,receivedResponse,rsp,rt,selected,stimulus1,stimulus1Bid,stimulus1Loaded,stimulus2,stimulus2Bid,stimulus2Loaded,subjectID,trialDuration,trialEndTime,trialN,trialStartTime
2018-01-03 14:58:35,0.22,4000,True,u,393.365,RiceKrispyTreat_small,RiceKrispyTreat_small,0.43,True,Laffytaffyred_one,0.65,True,MDMMT0010,393.365,774.075,0,380.71
2018-01-03 14:58:35,-0.41,4000,True,i,151.305,Hersheykisses,Jollyranchergreen,2.48,True,Hersheykisses,2.07,True,MDMMT0010,151.305,1430.99,1,1279.685
2018-01-03 14:58:35,2.48,4000,True,u,29.705,Almondjoy,Almondjoy,0.0,True,Jollyranchergreen,2.48,True,MDMMT0010,29.705,1965.795,2,1936.09
2018-01-03 14:58:35,0.75,4000,True,u,15.615,Hersheykisses,Hersheykisses,2.07,True,Whatchamacallit,2.82,True,MDMMT0010,15.615,2488.74,3,2473.125
2018-01-03 14:58:35,-2.3,4000,True,u,74.535,Reeses,Reeses,9.53,True,BabyRuth,7.23,True,MDMMT0010,74.535,3066.935,4,2992.4
2018-01-03 14:58:35,-0.25,4000,True,i,160.805,SourSkittles,Granolabar,6.6,True,SourSkittles,6.35,True,MDMMT0010,160.805,3732.905,5,3572.1
2018-01-03 14:58:35,0.67,4000,True,i,104.595,Granolabar,Riprolls,5.93,True,Granolabar,6.6,True,MDMMT0010,104.595,4342.875,6,4238.28
2018-01-03 14:58:35,-2.97,4000,True,i,4.675,SourSkittles,KitKat_small,9.32,False,SourSkittles,6.35,True,MDMMT0010,4.675,4854.65,7,4849.975
2018-01-03 14:58:35,-5.42,4000,True,u,53.425,BabyRuth,BabyRuth,7.23,True,Cheezits,1.81,True,MDMMT0010,53.425,5414.805,8,5361.38
2018-01-03 14:58:35,-1.78,4000,True,u,113.16,Doritosranch,Doritosranch,9.57,True,Hersheymilk_several,7.79,True,MDMMT0010,113.16,6030.845,9,5917.685
2018-01-03 14:58:35,-0.14,4000,True,u,108.645,PeanutMMs,PeanutMMs,9.01,True,3Musketeers,8.87,True,MDMMT0010,108.645,6645.715,10,6537.07
2018-01-03 14:58:35,-2.22,4000,True,i,31.0,Laysclassic,RitzBitz2,6.26,True,Laysclassic,4.04,True,MDMMT0010,31.0,7181.525,11,7150.525
2018-01-03 14:58:35,2.14,4000,True,u,3.165,100grand_small,100grand_small,7.81,False,FamousAmos_small,9.95,False,MDMMT0010,3.165,7689.55,12,7686.385
2018-01-03 14:58:35,-0.38,4000,True,i,50.025,Doritosranch,FamousAmos_small,9.95,True,Doritosranch,9.57,True,MDMMT0010,50.025,8249.625,13,8199.6
2018-01-03 14:58:36,-0.11,4000,True,i,75.065,Chocolate_mm,Milkduds,9.95,True,Chocolate_mm,9.84,True,MDMMT0010,75.065,8853.435,14,8778.37
2018-01-03 14:58:36,1.1,4000,True,u,29.125,starburst,starburst,6.71,True,100grand_small,7.81,True,MDMMT0010,29.125,9395.55,15,9366.425
2018-01-03 14:58:36,-5.9,4000,True,i,107.395,Butterfinger,FigNewton_small,8.04,True,Butterfinger,2.14,True,MDMMT0010,107.395,10007.57,16,9900.175
2018-01-03 14:58:36,-2.88,4000,True,i,118.75,Granolabar,PringlesRed,9.48,True,Granolabar,6.6,True,MDMMT0010,118.75,10630.6,17,10511.85
2018-01-03 14:58:36,-5.92,4000,True,u,20.34,SourSkittles,SourSkittles,6.35,True,RiceKrispyTreat_small,0.43,True,MDMMT0010,20.34,11158.385,18,11138.045
2018-01-03 14:58:36,0.41,4000,True,i,54.295,Keeblerfudgestripes,Whatchamacallit,2.82,True,Keeblerfudgestripes,3.23,True,MDMMT0010,54.295,11719.42,19,11665.125
2018-01-03 14:58:36,-0.31,4000,True,u,41.25,Milano,Milano,6.98,True,TootsieRolls,6.67,True,MDMMT0010,41.25,12263.43,20,12222.18
2018-01-03 14:58:36,-6.02,4000,True,i,61.24,Laffytaffyred_one,TootsieRolls,6.67,True,Laffytaffyred_one,0.65,True,MDMMT0010,61.24,12863.465,21,12802.225
2018-01-03 14:58:36,-0.31,4000,True,u,4.235,Dots_one,Dots_one,6.98,False,TootsieRolls,6.67,True,MDMMT0010,4.235,13372.27,22,13368.035
2018-01-03 14:58:36,-0.33,4000,True,i,37.435,Keeblerfudgestripes,Toberlorone,3.56,True,Keeblerfudgestripes,3.23,True,MDMMT0010,37.435,13916.355,23,13878.92
2018-01-03 14:58:36,0.0,4000,True,i,80.005,CheesyDoritos,Milkduds,9.95,True,CheesyDoritos,9.95,True,MDMMT0010,80.005,14543.375,24,14463.37
2018-01-03 14:58:36,0.0,4000,True,i,61.91,MrGoodbar,Crunch,9.81,True,MrGoodbar,9.81,True,MDMMT0010,61.91,15110.155,25,15048.245
2018-01-03 14:58:36,-0.48,4000,True,i,1.41,Toberlorone,Laysclassic,4.04,True,Toberlorone,3.56,True,MDMMT0010,1.41,15615.2,26,15613.79
2018-01-03 14:58:36,1.71,4000,True,u,84.935,RiceKrispyTreat_small,RiceKrispyTreat_small,0.43,True,Butterfinger,2.14,True,MDMMT0010,84.935,16208.325,27,16123.39
2018-01-03 14:58:36,-0.5,4000,True,i,24.76,PayDay,Cheezits,1.81,True,PayDay,1.31,True,MDMMT0010,24.76,16740.095,28,16715.335
2018-01-03 14:58:36,-1.64,4000,True,u,17.61,WheatThins,WheatThins,1.82,False,PopTartsStrawberry,0.18,False,MDMMT0010,17.61,17319.05,29,17301.44
2018-01-03 14:58:36,-0.49,4000,True,u,129.935,MrGoodbar,MrGoodbar,9.81,True,KitKat_small,9.32,True,MDMMT0010,129.935,17952.055,30,17822.12
2018-01-03 14:58:36,-2.97,4000,True,i,48.95,RiceKrispyTreat_small,Ruffles,3.4,True,RiceKrispyTreat_small,0.43,True,MDMMT0010,48.95,18506.07,31,18457.12
2018-01-03 14:58:36,0.45,4000,True,i,113.38,Ghiradelli_milk,Laffytaffyred_one,0.65,True,Ghiradelli_milk,1.1,True,MDMMT0010,113.38,19148.185,32,19034.805
2018-01-03 14:58:36,-0.25,4000,True,u,102.465,CheesyDoritos,CheesyDoritos,9.95,True,Goldfish,9.7,True,MDMMT0010,102.465,19755.175,33,19652.71
2018-01-03 14:58:36,0.42,4000,True,u,206.005,Reeses,Reeses,9.53,True,Milkduds,9.95,True,MDMMT0010,206.005,20470.08,34,20264.075
2018-01-03 14:58:36,-0.25,4000,True,i,61.35,KitKat_small,Doritosranch,9.57,True,KitKat_small,9.32,True,MDMMT0010,61.35,21043.885,35,20982.535
2018-01-03 14:58:36,-1.91,4000,True,i,17.21,FigNewton_small,CheesyDoritos,9.95,True,FigNewton_small,8.04,True,MDMMT0010,17.21,21586.08,36,21568.87
2018-01-03 14:58:36,-3.32,4000,True,u,125.995,FlamingCheetos,FlamingCheetos,4.42,True,Ghiradelli_milk,1.1,True,MDMMT0010,125.995,22216.98,37,22090.985
2018-01-03 14:58:36,-0.23,4000,True,i,131.125,AnimalCrackers,Cheese_PeanutButterCrackers,5.26,True,AnimalCrackers,5.03,True,MDMMT0010,131.125,22851.93,38,22720.805
2018-01-03 14:58:36,0.97,4000,True,i,8.38,Chocolate_mm,3Musketeers,8.87,True,Chocolate_mm,9.84,True,MDMMT0010,8.38,23364.98,39,23356.6
2018-01-03 14:58:36,-0.52,4000,True,i,57.465,Funyuns_small,AnimalCrackers,5.03,True,Funyuns_small,4.51,True,MDMMT0010,57.465,23925.895,40,23868.43
2018-01-03 14:58:36,-6.06,4000,True,i,42.295,Fritos,RitzBitz2,6.26,True,Fritos,0.2,True,MDMMT0010,42.295,24472.74,41,24430.445
2018-01-03 14:58:36,-2.22,4000,True,u,19.435,Riprolls,Riprolls,5.93,True,Skittles,3.71,True,MDMMT0010,19.435,25008.87,42,24989.435
2018-01-03 14:58:36,0.0,4000,True,u,83.245,CheesyDoritos,CheesyDoritos,9.95,True,FamousAmos_small,9.95,True,MDMMT0010,83.245,25599.055,43,25515.81
2018-01-03 14:58:36,0.13,4000,True,u,8.205,Doritosranch,Doritosranch,9.57,True,Goldfish,9.7,True,MDMMT0010,8.205,26113.66,44,26105.455
2018-01-03 14:58:36,6.06,4000,True,i,113.78,Nutterbutter,Keeblerfudgestripes,3.23,True,Nutterbutter,9.29,True,MDMMT0010,113.78,26732.81,45,26619.03
2018-01-03 14:58:36,-0.11,4000,True,i,178.21,Chocolate_mm,FamousAmos_small,9.95,True,Chocolate_mm,9.84,True,MDMMT0010,178.21,27417.815,46,27239.605
2018-01-03 14:58:36,-5.53,4000,True,u,14.91,Oreos,Oreos,5.53,False,Almondjoy,0.0,True,MDMMT0010,14.91,27940.575,47,27925.665
2018-01-03 14:58:36,-0.11,4000,True,i,149.01,Chocolate_mm,CheesyDoritos,9.95,True,Chocolate_mm,9.84,True,MDMMT0010,149.01,28596.7,48,28447.69
2018-01-03 14:58:36,-0.25,4000,True,u,8.215,Ghiradelli_milk_Almonds,Ghiradelli_milk_Almonds,0.7,False,Twix,0.45,False,MDMMT0010,8.215,29109.54,49,29101.325
2018-01-03 14:58:36,0.9,4000,True,u,18.755,Fritos,Fritos,0.2,True,Ghiradelli_milk,1.1,True,MDMMT0010,18.755,29632.555,50,29613.8
2018-01-03 14:58:36,0.14,4000,True,u,96.45,MrGoodbar,MrGoodbar,9.81,True,FamousAmos_small,9.95,True,MDMMT0010,96.45,30233.65,51,30137.2
2018-01-03 14:58:36,-1.81,4000,True,i,108.29,ChipsAhoy_small,Cheezits,1.81,True,ChipsAhoy_small,0.0,True,MDMMT0010,108.29,30848.66,52,30740.37
2018-01-03 14:58:36,-0.88,4000,True,i,39.04,RiceKrispyTreat_small,PayDay,1.31,True,RiceKrispyTreat_small,0.43,True,MDMMT0010,39.04,31391.63,53,31352.59
2018-01-03 14:58:36,-0.04,4000,True,i,252.955,TootsieRolls,starburst,6.71,True,TootsieRolls,6.67,True,MDMMT0010,252.955,32152.63,54,31899.675
2018-01-03 14:58:36,4.69,4000,True,u,123.735,Cheese_PeanutButterCrackers,Cheese_PeanutButterCrackers,5.26,True,CheesyDoritos,9.95,True,MDMMT0010,123.735,32780.555,55,32656.82
2018-01-03 14:58:36,-0.73,4000,True,u,63.665,RitzBitz2,RitzBitz2,6.26,True,Oreos,5.53,True,MDMMT0010,63.665,33353.32,56,33289.655
2018-01-03 14:58:36,2.91,4000,True,u,474.665,Laffytaffyred_one,Laffytaffyred_one,0.65,True,Toberlorone,3.56,True,MDMMT0010,474.665,34345.465,57,33870.8
2018-01-03 14:58:36,-0.34,4000,True,u,68.095,Snickers,Snickers,5.6,True,Cheese_PeanutButterCrackers,5.26,True,MDMMT0010,68.095,34918.25,58,34850.155
2018-01-03 14:58:36,0.2,4000,True,u,171.835,Almondjoy,Almondjoy,0.0,True,Fritos,0.2,True,MDMMT0010,171.835,35609.46,59,35437.625
2018-01-03 14:58:36,0.66,4000,True,u,117.49,WheatThins,WheatThins,1.82,True,Jollyranchergreen,2.48,True,MDMMT0010,117.49,36233.235,60,36115.745
2018-01-03 14:58:36,-2.94,4000,True,u,7.735,Cheetos,Cheetos,3.12,False,PopTartsStrawberry,0.18,True,MDMMT0010,7.735,36746.19,61,36738.455
2018-01-03 14:58:36,0.71,4000,True,i,60.94,Cheezits,Ghiradelli_milk,1.1,True,Cheezits,1.81,True,MDMMT0010,60.94,37311.225,62,37250.285
2018-01-03 14:58:36,-6.17,4000,True,i,84.245,TeddyGrahamschocolate,Milano,6.98,True,TeddyGrahamschocolate,0.81,True,MDMMT0010,84.245,37918.12,63,37833.875
2018-01-03 14:58:36,-2.3,4000,True,i,34.925,Ghiradelli_milk,Ruffles,3.4,True,Ghiradelli_milk,1.1,True,MDMMT0010,34.925,38456.24,64,38421.315
2018-01-03 14:58:36,-1.32,4000,True,i,0.499999999993,AnimalCrackers,SourSkittles,6.35,True,AnimalCrackers,5.03,True,MDMMT0010,0.499999999993,38960.11,65,38959.61
2018-01-03 14:58:36,1.0,4000,True,u,123.895,TeddyGrahamschocolate,TeddyGrahamschocolate,0.81,True,Cheezits,1.81,True,MDMMT0010,123.895,39589.175,66,39465.28
2018-01-03 14:58:36,2.03,4000,True,i,64.765,Jollyranchergreen,Twix,0.45,True,Jollyranchergreen,2.48,True,MDMMT0010,64.765,40162.015,67,40097.25
2018-01-03 14:58:36,-2.17,4000,True,u,315.785,Whatchamacallit,Whatchamacallit,2.82,True,Laffytaffyred_one,0.65,True,MDMMT0010,315.785,40994.205,68,40678.42
2018-01-03 14:58:36,-1.77,4000,True,i,44.525,FigNewton_small,Crunch,9.81,True,FigNewton_small,8.04,True,MDMMT0010,44.525,41547.16,69,41502.635
2018-01-03 14:58:36,2.86,4000,True,u,92.895,TootsieRolls,TootsieRolls,6.67,True,Reeses,9.53,True,MDMMT0010,92.895,42144.135,70,42051.24
2018-01-03 14:58:36,-1.47,4000,True,i,13.965,Slimjim,RitzBitz2,6.26,True,Slimjim,4.79,False,MDMMT0010,13.965,42661.9,71,42647.935
2018-01-03 14:58:36,-0.49,4000,True,u,91.07,MilkyWay,MilkyWay,7.2,True,starburst,6.71,True,MDMMT0010,91.07,43256.945,72,43165.875
2018-01-03 14:58:36,-0.89,4000,True,u,156.68,Skittles,Skittles,3.71,True,Whatchamacallit,2.82,True,MDMMT0010,156.68,43920.035,73,43763.355
2018-01-03 14:58:36,5.92,4000,True,u,192.74,Sourpatch,Sourpatch,3.56,True,PringlesRed,9.48,True,MDMMT0010,192.74,44616.89,74,44424.15
2018-01-03 14:58:36,2.61,4000,True,u,188.04,MilkyWay,MilkyWay,7.2,True,MrGoodbar,9.81,True,MDMMT0010,188.04,45312.95,75,45124.91
2018-01-03 14:58:36,-0.59,4000,True,u,343.355,Hersheymilk_several,Hersheymilk_several,7.79,True,MilkyWay,7.2,True,MDMMT0010,343.355,46163.96,76,45820.605
2018-01-03 14:58:36,-0.42,4000,True,u,93.525,SourSkittles,SourSkittles,6.35,True,Riprolls,5.93,True,MDMMT0010,93.525,46762.695,77,46669.17
2018-01-03 14:58:36,0.24,4000,True,i,133.58,Crunch,Doritosranch,9.57,True,Crunch,9.81,True,MDMMT0010,133.58,47398.7,78,47265.12
2018-01-03 14:58:36,-0.43,4000,True,i,9.01500000001,ChipsAhoy_small,RiceKrispyTreat_small,0.43,True,ChipsAhoy_small,0.0,True,MDMMT0010,9.01500000001,47915.715,79,47906.7
2018-01-03 14:58:36,0.33,4000,True,i,103.71,Laysclassic,Skittles,3.71,True,Laysclassic,4.04,True,MDMMT0010,103.71,48522.825,80,48419.115
2018-01-03 14:58:37,-0.09,4000,True,u,352.02,Funyuns_small,Funyuns_small,4.51,True,FlamingCheetos,4.42,True,MDMMT0010,352.02,49378.79,81,49026.77
2018-01-03 14:58:37,-0.28,4000,True,i,304.47,Cheetos,Ruffles,3.4,True,Cheetos,3.12,True,MDMMT0010,304.47,50189.73,82,49885.26
2018-01-03 14:58:37,-2.83,4000,True,i,151.915,Cheezits,Lollipopred,4.64,True,Cheezits,1.81,True,MDMMT0010,151.915,50848.62,83,50696.705
2018-01-03 14:58:37,5.75,4000,True,i,109.175,Riprolls,PopTartsStrawberry,0.18,True,Riprolls,5.93,True,MDMMT0010,109.175,51464.56,84,51355.385
2018-01-03 14:58:37,0.24,4000,True,i,55.535,Reeses,Nutterbutter,9.29,True,Reeses,9.53,True,MDMMT0010,55.535,52025.705,85,51970.17
2018-01-03 14:58:37,-5.16,4000,True,i,19.17,Slimjim,Milkduds,9.95,True,Slimjim,4.79,True,MDMMT0010,19.17,52551.53,86,52532.36
2018-01-03 14:58:37,2.04,4000,True,i,35.345,Snickers,Toberlorone,3.56,True,Snickers,5.6,True,MDMMT0010,35.345,53090.405,87,53055.06
2018-01-03 14:58:37,1.95,4000,True,i,151.205,Milano,AnimalCrackers,5.03,True,Milano,6.98,True,MDMMT0010,151.205,53782.59,88,53631.385
2018-01-03 14:58:37,-2.42,4000,True,i,147.275,Ghiradelli_milk_Almonds,Cheetos,3.12,True,Ghiradelli_milk_Almonds,0.7,True,MDMMT0010,147.275,54436.425,89,54289.15
2018-01-03 14:58:37,0.83,4000,True,i,151.805,3Musketeers,FigNewton_small,8.04,True,3Musketeers,8.87,True,MDMMT0010,151.805,55094.55,90,54942.745
2018-01-03 14:58:37,2.96,4000,True,u,62.635,Hersheykisses,Hersheykisses,2.07,True,AnimalCrackers,5.03,True,MDMMT0010,62.635,55661.42,91,55598.785
2018-01-03 14:58:37,-1.89,4000,True,i,65.385,100grand_small,Goldfish,9.7,True,100grand_small,7.81,True,MDMMT0010,65.385,56249.3,92,56183.915
2018-01-03 14:58:37,0.63,4000,True,u,134.66,KitKat_small,KitKat_small,9.32,True,CheesyDoritos,9.95,True,MDMMT0010,134.66,56904.47,93,56769.81
2018-01-03 14:58:37,1.09,4000,True,i,73.93,MrsFields,Dots_one,6.98,True,MrsFields,8.07,True,MDMMT0010,73.93,57482.245,94,57408.315
2018-01-03 14:58:37,-0.05,4000,True,i,104.87,Laffytaffyred_one,Ghiradelli_milk_Almonds,0.7,True,Laffytaffyred_one,0.65,True,MDMMT0010,104.87,58090.425,95,57985.555
2018-01-03 14:58:37,-0.97,4000,True,u,123.52,PeanutMMs,PeanutMMs,9.01,True,FigNewton_small,8.04,True,MDMMT0010,123.52,58718.385,96,58594.865
2018-01-03 14:58:37,-1.97,4000,True,u,14.645,Oreos,Oreos,5.53,True,Sourpatch,3.56,True,MDMMT0010,14.645,59237.36,97,59222.715
2018-01-03 14:58:37,-3.27,4000,True,i,30.43,Snickers,3Musketeers,8.87,True,Snickers,5.6,True,MDMMT0010,30.43,59772.305,98,59741.875
2018-01-03 14:58:37,-0.17,4000,True,u,165.755,Ruffles,Ruffles,3.4,True,Keeblerfudgestripes,3.23,True,MDMMT0010,165.755,60442.105,99,60276.35
2018-01-03 14:58:37,-3.23,4000,True,u,449.205,Laysclassic,Laysclassic,4.04,True,TeddyGrahamschocolate,0.81,True,MDMMT0010,449.205,61397.235,100,60948.03
2018-01-03 14:58:37,1.11,4000,True,i,139.36,Oreos,FlamingCheetos,4.42,True,Oreos,5.53,True,MDMMT0010,139.36,62040.04,101,61900.68
2018-01-03 14:58:37,-6.15,4000,True,u,214.225,Granolabar,Granolabar,6.6,True,Twix,0.45,True,MDMMT0010,214.225,62758.015,102,62543.79
2018-01-03 14:58:37,2.03,4000,True,u,45.9,Lollipopred,Lollipopred,4.64,True,TootsieRolls,6.67,True,MDMMT0010,45.9,63311.95,103,63266.05
2018-01-03 14:58:37,3.03,4000,True,u,112.0,RitzBitz2,RitzBitz2,6.26,True,Nutterbutter,9.29,True,MDMMT0010,112.0,63947.925,104,63835.925
2018-01-03 14:58:37,0.28,4000,True,i,38.305,Slimjim,Funyuns_small,4.51,True,Slimjim,4.79,True,MDMMT0010,38.305,64491.905,105,64453.6
2018-01-03 14:58:37,1.87,4000,True,i,87.915,Hersheykisses,Fritos,0.2,True,Hersheykisses,2.07,True,MDMMT0010,87.915,65123.86,106,65035.945
2018-01-03 14:58:37,0.22,4000,True,u,32.005,FlamingCheetos,FlamingCheetos,4.42,True,Lollipopred,4.64,True,MDMMT0010,32.005,65659.86,107,65627.855
2018-01-03 14:58:37,3.01,4000,True,u,129.665,Ghiradelli_milk_Almonds,Ghiradelli_milk_Almonds,0.7,True,Skittles,3.71,True,MDMMT0010,129.665,66334.795,108,66205.13
2018-01-03 14:58:37,-2.61,4000,True,i,7.48499999999,BabyRuth,Chocolate_mm,9.84,True,BabyRuth,7.23,True,MDMMT0010,7.48499999999,66849.79,109,66842.305
2018-01-03 14:58:37,1.31,4000,True,u,24.715,Almondjoy,Almondjoy,0.0,True,PayDay,1.31,True,MDMMT0010,24.715,67381.785,110,67357.07
2018-01-03 14:58:37,-2.42,4000,True,u,32.335,Keeblerfudgestripes,Keeblerfudgestripes,3.23,True,TeddyGrahamschocolate,0.81,True,MDMMT0010,32.335,67970.73,111,67938.395
2018-01-03 14:58:37,-0.22,4000,True,u,130.695,Goldfish,Goldfish,9.7,True,PringlesRed,9.48,True,MDMMT0010,130.695,68651.71,112,68521.015
2018-01-03 14:58:37,0.37,4000,True,i,1.41000000002,Slimjim,FlamingCheetos,4.42,True,Slimjim,4.79,True,MDMMT0010,1.41000000002,69158.78,113,69157.37
2018-01-03 14:58:37,-0.34,4000,True,u,134.1,Granolabar,Granolabar,6.6,True,RitzBitz2,6.26,True,MDMMT0010,134.1,69796.685,114,69662.585
2018-01-03 14:58:37,-0.15,4000,True,i,78.095,Sourpatch,Skittles,3.71,True,Sourpatch,3.56,True,MDMMT0010,78.095,70377.655,115,70299.56
2018-01-03 14:58:37,-0.75,4000,True,u,136.055,SourSkittles,SourSkittles,6.35,True,Snickers,5.6,True,MDMMT0010,136.055,71016.59,116,70880.535
2018-01-03 14:58:37,-1.06,4000,True,i,84.935,100grand_small,3Musketeers,8.87,True,100grand_small,7.81,True,MDMMT0010,84.935,71608.58,117,71523.645
2018-01-03 14:58:37,-0.25,4000,True,u,130.525,Hersheykisses,Hersheykisses,2.07,True,WheatThins,1.82,True,MDMMT0010,130.525,72242.52,118,72111.995
2018-01-03 14:58:37,0.98,4000,True,i,86.375,Cheetos,Butterfinger,2.14,True,Cheetos,3.12,True,MDMMT0010,86.375,72831.525,119,72745.15
2018-01-03 14:58:37,0.0,4000,True,u,147.65,Almondjoy,Almondjoy,0.0,True,ChipsAhoy_small,0.0,True,MDMMT0010,147.65,73484.475,120,73336.825
2018-01-03 14:58:37,0.3,4000,True,u,5.23,Whatchamacallit,Whatchamacallit,2.82,True,Cheetos,3.12,True,MDMMT0010,5.23,73992.48,121,73987.25
2018-01-03 14:58:37,6.05,4000,True,u,86.605,Whatchamacallit,Whatchamacallit,2.82,True,3Musketeers,8.87,True,MDMMT0010,86.605,74584.45,122,74497.845
2018-01-03 14:58:37,0.94,4000,True,u,25.385,PeanutMMs,PeanutMMs,9.01,True,Milkduds,9.95,True,MDMMT0010,25.385,75115.42,123,75090.035
2018-01-03 14:58:37,0.03,4000,True,u,115.27,MilkyWay,MilkyWay,7.2,True,BabyRuth,7.23,True,MDMMT0010,115.27,75780.74,124,75665.47
2018-01-03 14:58:37,0.03,4000,True,i,191.265,MrsFields,FigNewton_small,8.04,True,MrsFields,8.07,True,MDMMT0010,191.265,76476.33,125,76285.065
2018-01-03 14:58:37,1.42,4000,True,i,18.025,Sourpatch,Butterfinger,2.14,True,Sourpatch,3.56,True,MDMMT0010,18.025,77000.33,126,76982.305
2018-01-03 14:58:37,0.0,4000,True,i,71.52,Dots_one,Milano,6.98,True,Dots_one,6.98,True,MDMMT0010,71.52,77576.29,127,77504.77
2018-01-03 14:58:37,0.61,4000,True,u,250.67,Ghiradelli_milk_Almonds,Ghiradelli_milk_Almonds,0.7,True,PayDay,1.31,True,MDMMT0010,250.67,78336.275,128,78085.605
2018-01-03 14:58:37,-0.27,4000,True,u,3.265,Twix,Twix,0.45,True,PopTartsStrawberry,0.18,True,MDMMT0010,3.265,78843.34,129,78840.075
2018-01-03 14:58:37,-0.29,4000,True,i,17.445,TeddyGrahamschocolate,Ghiradelli_milk,1.1,True,TeddyGrahamschocolate,0.81,True,MDMMT0010,17.445,79366.215,130,79348.77
2018-01-03 14:58:37,0.62,4000,True,i,194.91,Cheese_PeanutButterCrackers,Lollipopred,4.64,True,Cheese_PeanutButterCrackers,5.26,True,MDMMT0010,194.91,80068.175,131,79873.265
2018-01-03 14:58:37,0.5,4000,True,u,39.9,AnimalCrackers,AnimalCrackers,5.03,True,Oreos,5.53,True,MDMMT0010,39.9,80611.165,132,80571.265
2018-01-03 14:58:37,0.2,4000,True,i,231.665,Fritos,ChipsAhoy_small,0.0,True,Fritos,0.2,True,MDMMT0010,231.665,81385.31,133,81153.645
2018-01-03 14:58:37,0.03,4000,True,i,122.525,KitKat_small,Nutterbutter,9.29,True,KitKat_small,9.32,True,MDMMT0010,122.525,82016.285,134,81893.76
2018-01-03 14:58:37,2.97,4000,True,i,19.85,Slimjim,WheatThins,1.82,True,Slimjim,4.79,True,MDMMT0010,19.85,82540.26,135,82520.41
2018-01-03 14:58:37,-2.09,4000,True,u,143.3,Granolabar,Granolabar,6.6,True,Funyuns_small,4.51,True,MDMMT0010,143.3,83187.21,136,83043.91
2018-01-03 14:58:37,5.97,4000,True,u,38.76,WheatThins,WheatThins,1.82,True,Hersheymilk_several,7.79,True,MDMMT0010,38.76,83732.08,137,83693.32
2018-01-03 14:58:37,0.02,4000,True,u,35.385,RiceKrispyTreat_small,RiceKrispyTreat_small,0.43,True,Twix,0.45,True,MDMMT0010,35.385,84308.21,138,84272.825
2018-01-03 14:58:37,0.02,4000,False,NaN,4005.29,NaN,PopTartsStrawberry,0.18,True,Fritos,0.2,True,MDMMT0010,4005.29,88866.25,139,84860.96
2018-01-03 14:58:37,-1.09,4000,False,NaN,4004.805,NaN,Snickers,5.6,True,Funyuns_small,4.51,True,MDMMT0010,4004.805,93375.48,140,89370.675
2018-01-03 14:58:37,-5.6,4000,False,NaN,4005.295,NaN,Snickers,5.6,True,ChipsAhoy_small,0.0,True,MDMMT0010,4005.295,97887.01,141,93881.715
2018-01-03 14:58:37,-0.02,4000,True,u,531.9,100grand_small,100grand_small,7.81,True,Hersheymilk_several,7.79,True,MDMMT0010,531.9,98924.265,142,98392.365
2018-01-03 14:58:37,5.86,4000,True,i,177.895,Doritosranch,Skittles,3.71,True,Doritosranch,9.57,True,MDMMT0010,177.895,99613.035,143,99435.14
2018-01-03 14:58:37,0.11,4000,True,u,69.81,Goldfish,Goldfish,9.7,True,MrGoodbar,9.81,True,MDMMT0010,69.81,100191.055,144,100121.245
2018-01-03 14:58:37,0.34,4000,True,u,143.46,Butterfinger,Butterfinger,2.14,True,Jollyranchergreen,2.48,True,MDMMT0010,143.46,100840.995,145,100697.535
2018-01-03 14:58:38,-1.92,4000,True,i,194.23,Slimjim,starburst,6.71,True,Slimjim,4.79,True,MDMMT0010,194.23,101538.985,146,101344.755
2018-01-03 14:58:38,0.48,4000,True,i,93.935,Laysclassic,Sourpatch,3.56,True,Laysclassic,4.04,True,MDMMT0010,93.935,102138.975,147,102045.04
2018-01-03 14:58:38,-0.05,4000,True,i,53.905,PringlesRed,Reeses,9.53,True,PringlesRed,9.48,True,MDMMT0010,53.905,102698.86,148,102644.955
2018-01-03 14:58:38,-0.21,4000,True,i,179.03,KitKat_small,Reeses,9.53,True,KitKat_small,9.32,True,MDMMT0010,179.03,103411.905,149,103232.875
2018-01-03 14:58:38,-0.07,4000,True,u,78.525,Snickers,Snickers,5.6,True,Oreos,5.53,True,MDMMT0010,78.525,103994.81,150,103916.285
2018-01-03 14:58:38,1.33,4000,True,u,406.605,Hersheykisses,Hersheykisses,2.07,True,Ruffles,3.4,True,MDMMT0010,406.605,104904.73,151,104498.125
2018-01-03 14:58:38,3.11,4000,True,u,219.255,Twix,Twix,0.45,True,Sourpatch,3.56,True,MDMMT0010,219.255,105632.76,152,105413.505
2018-01-03 14:58:38,3.03,4000,True,u,230.47,Fritos,Fritos,0.2,True,Keeblerfudgestripes,3.23,True,MDMMT0010,230.47,106371.9,153,106141.43
2018-01-03 14:58:38,5.89,4000,True,u,28.18,Cheetos,Cheetos,3.12,True,PeanutMMs,9.01,True,MDMMT0010,28.18,106906.565,154,106878.385
2018-01-03 14:58:38,1.93,4000,True,i,98.135,SourSkittles,FlamingCheetos,4.42,True,SourSkittles,6.35,True,MDMMT0010,98.135,107565.71,155,107467.575
2018-01-03 14:58:38,0.94,4000,True,i,373.375,PeanutMMs,MrsFields,8.07,True,PeanutMMs,9.01,True,MDMMT0010,373.375,108447.645,156,108074.27
2018-01-03 14:58:38,2.82,4000,True,u,579.16,ChipsAhoy_small,ChipsAhoy_small,0.0,True,Whatchamacallit,2.82,True,MDMMT0010,579.16,109531.595,157,108952.435
2018-01-03 14:58:38,1.34,4000,True,u,89.68,Cheese_PeanutButterCrackers,Cheese_PeanutButterCrackers,5.26,True,Granolabar,6.6,True,MDMMT0010,89.68,110136.625,158,110046.945
2018-01-03 14:58:38,5.97,4000,True,i,6.935,Reeses,Toberlorone,3.56,True,Reeses,9.53,True,MDMMT0010,6.935,110647.375,159,110640.44
2018-01-03 14:58:38,0.18,4000,True,u,44.275,Almondjoy,Almondjoy,0.0,True,PopTartsStrawberry,0.18,True,MDMMT0010,44.275,111195.56,160,111151.285
2018-01-03 14:58:38,-5.92,4000,True,u,78.165,KitKat_small,KitKat_small,9.32,True,Ruffles,3.4,True,MDMMT0010,78.165,111821.285,161,111743.12
2018-01-03 14:58:38,-5.66,4000,True,i,57.38,Laysclassic,Goldfish,9.7,True,Laysclassic,4.04,True,MDMMT0010,57.38,112383.45,162,112326.07
2018-01-03 14:58:38,0.52,4000,True,u,1.0,Nutterbutter,Nutterbutter,9.29,True,Crunch,9.81,True,MDMMT0010,1.0,112909.3,163,112908.3
2018-01-03 14:58:38,-5.39,4000,True,i,9.25999999999,FlamingCheetos,Crunch,9.81,True,FlamingCheetos,4.42,True,MDMMT0010,9.25999999999,113423.425,164,113414.165
2018-01-03 14:58:38,-5.59,4000,True,u,61.145,MrsFields,MrsFields,8.07,True,Jollyranchergreen,2.48,True,MDMMT0010,61.145,113987.355,165,113926.21
2018-01-03 14:58:38,-0.63,4000,True,i,498.255,PopTartsStrawberry,TeddyGrahamschocolate,0.81,True,PopTartsStrawberry,0.18,True,MDMMT0010,498.255,115006.19,166,114507.935
2018-01-03 14:58:38,0.14,4000,True,i,161.655,Milkduds,Crunch,9.81,True,Milkduds,9.95,True,MDMMT0010,161.655,115674.275,167,115512.62
2018-01-03 14:58:38,-0.7,4000,True,u,104.485,Ghiradelli_milk_Almonds,Ghiradelli_milk_Almonds,0.7,True,ChipsAhoy_small,0.0,True,MDMMT0010,104.485,116282.345,168,116177.86
2018-01-03 14:58:38,0.36,4000,True,i,163.025,Chocolate_mm,PringlesRed,9.48,True,Chocolate_mm,9.84,True,MDMMT0010,163.025,116949.285,169,116786.26
2018-01-03 14:58:38,6.01,4000,True,u,46.055,Ghiradelli_milk_Almonds,Ghiradelli_milk_Almonds,0.7,True,starburst,6.71,True,MDMMT0010,46.055,117501.23,170,117455.175
2018-01-03 14:58:38,1.36,4000,True,i,3.23999999999,Cheezits,Twix,0.45,True,Cheezits,1.81,True,MDMMT0010,3.23999999999,118035.11,171,118031.87
2018-01-03 14:58:38,-4.92,4000,True,i,66.465,AnimalCrackers,FamousAmos_small,9.95,True,AnimalCrackers,5.03,True,MDMMT0010,66.465,118610.025,172,118543.56
2018-01-03 14:58:38,2.16,4000,True,u,89.925,Hersheymilk_several,Hersheymilk_several,7.79,True,Milkduds,9.95,True,MDMMT0010,89.925,119217.195,173,119127.27
2018-01-03 14:58:38,-1.78,4000,True,u,34.03,PeanutMMs,PeanutMMs,9.01,True,BabyRuth,7.23,True,MDMMT0010,34.03,119755.155,174,119721.125
2018-01-03 14:58:38,5.74,4000,True,u,56.485,Hersheykisses,Hersheykisses,2.07,True,100grand_small,7.81,True,MDMMT0010,56.485,120356.135,175,120299.65
2018-01-03 14:58:38,-1.67,4000,True,i,49.245,MilkyWay,3Musketeers,8.87,True,MilkyWay,7.2,True,MDMMT0010,49.245,120911.035,176,120861.79
2018-01-03 14:58:38,3.2,4000,True,i,296.31,Funyuns_small,PayDay,1.31,True,Funyuns_small,4.51,True,MDMMT0010,296.31,121727.115,177,121430.805
2018-01-03 14:58:38,-1.29,4000,True,i,174.075,Lollipopred,Riprolls,5.93,True,Lollipopred,4.64,True,MDMMT0010,174.075,122407.08,178,122233.005
2018-01-03 14:58:38,-0.5,4000,True,i,173.12,TeddyGrahamschocolate,PayDay,1.31,True,TeddyGrahamschocolate,0.81,True,MDMMT0010,173.12,123085.015,179,122911.895
2018-01-03 14:58:38,-0.15,4000,True,i,13.4,Lollipopred,Slimjim,4.79,True,Lollipopred,4.64,True,MDMMT0010,13.4,123604.98,180,123591.58
2018-01-03 14:58:38,5.88,4000,True,i,536.945,Dots_one,Ghiradelli_milk,1.1,True,Dots_one,6.98,True,MDMMT0010,536.945,124704.855,181,124167.91
2018-01-03 14:58:38,-2.86,4000,True,i,194.22,starburst,Doritosranch,9.57,True,starburst,6.71,True,MDMMT0010,194.22,125404.9,182,125210.68
2018-01-03 14:58:38,-3.12,4000,True,i,302.595,Butterfinger,Cheese_PeanutButterCrackers,5.26,True,Butterfinger,2.14,True,MDMMT0010,302.595,126211.8,183,125909.205
2018-01-03 14:58:38,-2.72,4000,True,u,203.445,Goldfish,Goldfish,9.7,True,Milano,6.98,True,MDMMT0010,203.445,126923.695,184,126720.25
2018-01-03 14:58:38,-0.19,4000,True,i,256.32,Nutterbutter,PringlesRed,9.48,True,Nutterbutter,9.29,True,MDMMT0010,256.32,127684.795,185,127428.475
2018-01-03 14:58:38,-1.72,4000,True,u,137.155,Dots_one,Dots_one,6.98,True,Cheese_PeanutButterCrackers,5.26,True,MDMMT0010,137.155,128327.775,186,128190.62
2018-01-03 14:58:38,5.3,4000,True,i,358.86,MrGoodbar,Funyuns_small,4.51,True,MrGoodbar,9.81,True,MDMMT0010,358.86,129191.825,187,128832.965
2018-01-03 14:58:38,0.32,4000,True,i,245.595,Butterfinger,WheatThins,1.82,True,Butterfinger,2.14,True,MDMMT0010,245.595,129941.695,188,129696.1
2018-01-03 14:58:38,5.89,4000,True,i,124.895,MilkyWay,PayDay,1.31,True,MilkyWay,7.2,True,MDMMT0010,124.895,130571.67,189,130446.775
2018-01-03 14:58:38,0.58,4000,True,i,1998.715,100grand_small,BabyRuth,7.23,True,100grand_small,7.81,True,MDMMT0010,1998.715,133079.505,190,131080.79
2018-01-03 14:58:38,1.74,4000,True,u,247.695,MrsFields,MrsFields,8.07,True,MrGoodbar,9.81,True,MDMMT0010,247.695,133835.625,191,133587.93
2018-01-03 14:58:38,0.0,4000,True,u,323.32,Toberlorone,Toberlorone,3.56,True,Sourpatch,3.56,True,MDMMT0010,323.32,134664.815,192,134341.495
2018-01-03 14:58:38,-1.41,4000,True,i,476.37,WheatThins,Keeblerfudgestripes,3.23,True,WheatThins,1.82,True,MDMMT0010,476.37,135645.48,193,135169.11
2018-01-03 14:58:38,0.28,4000,True,i,94.995,MrsFields,Hersheymilk_several,7.79,True,MrsFields,8.07,True,MDMMT0010,94.995,136247.415,194,136152.42
2018-01-03 14:58:38,0.33,4000,True,i,33.235,RitzBitz2,Riprolls,5.93,True,RitzBitz2,6.26,True,MDMMT0010,33.235,136784.395,195,136751.16
2018-01-03 14:58:38,-0.65,4000,True,u,133.045,Laffytaffyred_one,Laffytaffyred_one,0.65,True,Almondjoy,0.0,True,MDMMT0010,133.045,137472.135,196,137339.09
2018-01-03 14:58:38,-1.08,4000,True,u,472.45,Toberlorone,Toberlorone,3.56,True,Jollyranchergreen,2.48,True,MDMMT0010,472.45,138448.5,197,137976.05
2018-01-03 14:58:38,0.66,4000,True,i,189.84,FamousAmos_small,Nutterbutter,9.29,True,FamousAmos_small,9.95,True,MDMMT0010,189.84,139144.47,198,138954.63
2018-01-03 14:58:38,0.27,4000,True,u,88.625,starburst,starburst,6.71,True,Dots_one,6.98,True,MDMMT0010,88.625,139741.215,199,139652.59
2018-01-03 14:58:38,-2.54,4000,True,u,16.295,MrsFields,MrsFields,8.07,True,Oreos,5.53,True,MDMMT0010,16.295,140272.03,200,140255.735
2018-01-03 14:58:38,-2.28,4000,True,u,99.33,PringlesRed,PringlesRed,9.48,True,MilkyWay,7.2,True,MDMMT0010,99.33,140878.145,201,140778.815
2018-01-03 14:58:38,-1.12,4000,True,u,85.795,Hersheymilk_several,Hersheymilk_several,7.79,True,TootsieRolls,6.67,True,MDMMT0010,85.795,141469.185,202,141383.39
2018-01-03 14:58:38,2.83,4000,True,i,105.485,Crunch,Dots_one,6.98,True,Crunch,9.81,True,MDMMT0010,105.485,142080.955,203,141975.47
2018-01-03 14:58:38,5.2,4000,True,u,80.0,Lollipopred,Lollipopred,4.64,True,Chocolate_mm,9.84,True,MDMMT0010,80.0,142665.12,204,142585.12
2018-01-03 14:58:38,-0.92,4000,True,i,108.655,Cheetos,Laysclassic,4.04,True,Cheetos,3.12,True,MDMMT0010,108.655,143278.055,205,143169.4
2018-01-03 14:58:38,1.06,4000,True,i,305.53,FigNewton_small,Milano,6.98,True,FigNewton_small,8.04,True,MDMMT0010,305.53,144092.055,206,143786.525
2018-01-03 14:58:38,-3.08,4000,True,i,99.44,Riprolls,PeanutMMs,9.01,True,Riprolls,5.93,True,MDMMT0010,99.44,144698.815,207,144599.375
2018-01-03 14:58:38,-0.31,4000,True,i,41.905,Ruffles,Skittles,3.71,True,Ruffles,3.4,True,MDMMT0010,41.905,145244.98,208,145203.075
2018-01-03 14:58:38,-0.25,4000,True,u,83.675,BabyRuth,BabyRuth,7.23,True,Milano,6.98,True,MDMMT0010,83.675,145836.91,209,145753.235
