maxTrialTime,rating,receivedResponse,rt,stimulus1,stimulus1Loaded,subjectID,trialDuration,trialEndTime,trialN,trialStartTime
NaN,1.38,True,1122.64,Dots_one,True,TEST00001,1122.64,1242.395,0,119.755
NaN,1.55,True,441.47,3Musketeers,True,TEST00001,441.47,1686.925,1,1245.455
NaN,1.14,True,401.945,FamousAmos_small,True,TEST00001,401.945,2090.895,2,1688.95
NaN,1.46,True,449.665,Skittles,True,TEST00001,449.665,2542.72,3,2093.055
NaN,1.84,True,410.03,SourSkittles,True,TEST00001,410.03,2954.81,4,2544.78
NaN,2.25,True,377.795,FlamingCheetos,True,TEST00001,377.795,3334.62,5,2956.825
NaN,1.7,True,337.03,KitKat_small,True,TEST00001,337.03,3673.69,6,3336.66
NaN,1.44,True,337.1,Milkduds,True,TEST00001,337.1,4012.89,7,3675.79
NaN,1.07,True,345.35,Doritosranch,True,TEST00001,345.35,4360.36,8,4015.01
NaN,0.71,True,345.63,Slimjim,True,TEST00001,345.63,4708.03,9,4362.4
NaN,1.16,True,352.77,Oreos,True,TEST00001,352.77,5063.065,10,4710.295
NaN,1.48,True,369.505,Goldfish,True,TEST00001,369.505,5434.78,11,5065.275
NaN,2.02,True,336.785,Chocolate_mm,True,TEST00001,336.785,5773.74,12,5436.955
NaN,2.63,True,385.545,100grand_small,True,TEST00001,385.545,6161.715,13,5776.17
NaN,2.23,True,377.525,Hersheykisses,True,TEST00001,377.525,6541.37,14,6163.845
NaN,1.68,True,353.06,Ruffles,True,TEST00001,353.06,6896.555,15,6543.495
NaN,1.24,True,361.58,WheatThins,True,TEST00001,361.58,7260.22,16,6898.64
NaN,0.62,True,378.025,Lollipopred,True,TEST00001,378.025,7640.25,17,7262.225
NaN,1.04,True,369.53,PopTartsStrawberry,True,TEST00001,369.53,8011.815,18,7642.285
NaN,1.36,True,385.22,AnimalCrackers,True,TEST00001,385.22,8399.09,19,8013.87
NaN,1.56,True,418.015,MilkyWay,True,TEST00001,418.015,8819.21,20,8401.195
NaN,2.02,True,385.61,PringlesRed,True,TEST00001,385.61,9206.96,21,8821.35
NaN,2.24,True,434.08,Twix,True,TEST00001,434.08,9643.205,22,9209.125
NaN,2.43,True,385.56,PayDay,True,TEST00001,385.56,10030.91,23,9645.35
NaN,1.91,True,401.77,RitzBitz2,True,TEST00001,401.77,10434.765,24,10032.995
NaN,1.44,True,361.455,CheesyDoritos,True,TEST00001,361.455,10798.265,25,10436.81
NaN,0.9,True,434.185,FigNewton_small,True,TEST00001,434.185,11234.49,26,10800.305
NaN,1.22,True,401.635,Cheetos,True,TEST00001,401.635,11638.275,27,11236.64
NaN,1.43,True,434.12,TeddyGrahamschocolate,True,TEST00001,434.12,12074.43,28,11640.31
NaN,1.69,True,410.775,Toberlorone,True,TEST00001,410.775,12486.61,29,12075.835
NaN,1.31,True,401.8,Jollyranchergreen,True,TEST00001,401.8,12890.43,30,12488.63
NaN,1.54,True,523.05,Fritos,True,TEST00001,523.05,13415.505,31,12892.455
NaN,1.67,True,442.205,PeanutMMs,True,TEST00001,442.205,13859.835,32,13417.63
NaN,2.02,True,559.075,Whatchamacallit,True,TEST00001,559.075,14421.14,33,13862.065
NaN,2.14,True,555.305,Snickers,True,TEST00001,555.305,14978.565,34,14423.26
NaN,2.41,True,635.995,Cheezits,True,TEST00001,635.995,15616.765,35,14980.77
NaN,2.1,True,539.01,Granolabar,True,TEST00001,539.01,16157.87,36,15618.86
NaN,1.74,True,530.82,Hersheymilk_several,True,TEST00001,530.82,16690.995,37,16160.175
NaN,1.51,True,425.925,Almondjoy,True,TEST00001,425.925,17119.095,38,16693.17
NaN,1.69,True,498.735,Funyuns_small,True,TEST00001,498.735,17619.945,39,17121.21
NaN,1.89,True,409.85,Sourpatch,True,TEST00001,409.85,18031.805,40,17621.955
NaN,2.22,True,402.01,Crunch,True,TEST00001,402.01,18435.805,41,18033.795
NaN,2.45,True,385.65,MrGoodbar,True,TEST00001,385.65,18823.515,42,18437.865
NaN,2.7,True,353.3,Nutterbutter,True,TEST00001,353.3,19178.915,43,18825.615
NaN,2.02,True,393.535,Ghiradelli_milk_Almonds,True,TEST00001,393.535,19574.735,44,19181.2
NaN,1.48,True,417.615,TootsieRolls,True,TEST00001,417.615,19994.65,45,19577.035
NaN,1.01,True,401.99,MrsFields,True,TEST00001,401.99,20398.625,46,19996.635
NaN,1.4,True,425.855,Ghiradelli_milk,True,TEST00001,425.855,20826.76,47,20400.905
NaN,1.59,True,441.87,Reeses,True,TEST00001,441.87,21270.965,48,20829.095
NaN,2.02,True,426.295,Butterfinger,True,TEST00001,426.295,21699.27,49,21272.975
NaN,1.45,True,377.38,ChipsAhoy_small,True,TEST00001,377.38,22078.65,50,21701.27
NaN,1.78,True,417.935,Cheese_PeanutButterCrackers,True,TEST00001,417.935,22498.735,51,22080.8
NaN,1.42,True,434.22,starburst,True,TEST00001,434.22,22934.955,52,22500.735
NaN,1.73,True,417.87,Laffytaffyred_one,True,TEST00001,417.87,23355.0,53,22937.13
NaN,1.28,True,425.96,Keeblerfudgestripes,True,TEST00001,425.96,23783.095,54,23357.135
NaN,1.56,True,434.24,Laysclassic,True,TEST00001,434.24,24219.34,55,23785.1
NaN,1.05,True,401.695,Milano,True,TEST00001,401.695,24623.155,56,24221.46
NaN,1.28,True,466.265,Riprolls,True,TEST00001,466.265,25091.65,57,24625.385
NaN,0.54,True,393.84,BabyRuth,True,TEST00001,393.84,25487.495,58,25093.655
NaN,0.16,True,474.9,RiceKrispyTreat_small,True,TEST00001,474.9,25964.525,59,25489.625
