date,delta,maxTrialTime,receivedResponse,rsp,rt,selected,stimulus1,stimulus1Bid,stimulus1Loaded,stimulus2,stimulus2Bid,stimulus2Loaded,subjectID,trialDuration,trialEndTime,trialN,trialStartTime
2018-01-19 14:09:59,0.03,4000,True,u,385.665,Ghiradelli_milk_Almonds,Ghiradelli_milk_Almonds,7.42,True,Milano,7.45,True,MDMMT_0019,385.665,670.985,0,285.32
2018-01-19 14:09:59,0.5,4000,True,i,28.64,CheesyDoritos,FigNewton_small,1.68,True,CheesyDoritos,2.18,True,MDMMT_0019,28.64,1205.74,1,1177.1
2018-01-19 14:09:59,0.24,4000,True,i,99.3,Laffytaffyred_one,FigNewton_small,1.68,True,Laffytaffyred_one,1.92,True,MDMMT_0019,99.3,1807.95,2,1708.65
2018-01-19 14:09:59,-2.23,4000,True,i,106.835,Dots_one,Goldfish,8.29,True,Dots_one,6.06,True,MDMMT_0019,106.835,2423.92,3,2317.085
2018-01-19 14:09:59,-3.18,4000,True,i,107.64,Oreos,Nutterbutter,9.14,True,Oreos,5.96,True,MDMMT_0019,107.64,3039.86,4,2932.22
2018-01-19 14:09:59,0.13,4000,True,u,7.075,FigNewton_small,FigNewton_small,1.68,True,Ghiradelli_milk,1.81,False,MDMMT_0019,7.075,3555.65,5,3548.575
2018-01-19 14:09:59,0.58,4000,True,i,20.305,TootsieRolls,Ghiradelli_milk,1.81,True,TootsieRolls,2.39,True,MDMMT_0019,20.305,4084.67,6,4064.365
2018-01-19 14:09:59,2.33,4000,True,u,18.475,Cheese_PeanutButterCrackers,Cheese_PeanutButterCrackers,0.06,True,TootsieRolls,2.39,True,MDMMT_0019,18.475,4612.76,7,4594.285
2018-01-19 14:09:59,1.24,4000,True,u,73.33,Fritos,Fritos,0.43,True,KitKat_small,1.67,True,MDMMT_0019,73.33,5241.56,8,5168.23
2018-01-19 14:09:59,2.25,4000,True,i,24.735,RitzBitz2,KitKat_small,1.67,True,RitzBitz2,3.92,True,MDMMT_0019,24.735,5776.69,9,5751.955
2018-01-19 14:09:59,-2.94,4000,True,i,52.605,Chocolate_mm,FamousAmos_small,9.39,True,Chocolate_mm,6.45,True,MDMMT_0019,52.605,6388.56,10,6335.955
2018-01-19 14:09:59,0.48,4000,True,i,104.66,Cheezits,Milkduds,9.2,True,Cheezits,9.68,True,MDMMT_0019,104.66,7020.69,11,6916.03
2018-01-19 14:09:59,-1.36,4000,True,u,93.35,Keeblerfudgestripes,Keeblerfudgestripes,5.28,True,MilkyWay,3.92,True,MDMMT_0019,93.35,7617.64,12,7524.29
2018-01-19 14:09:59,-4.14,4000,True,u,26.15,Keeblerfudgestripes,Keeblerfudgestripes,5.28,True,Jollyranchergreen,1.14,True,MDMMT_0019,26.15,8147.555,13,8121.405
2018-01-19 14:09:59,-4.38,4000,True,u,18.645,Dots_one,Dots_one,6.06,True,FigNewton_small,1.68,True,MDMMT_0019,18.645,8672.47,14,8653.825
2018-01-19 14:09:59,-4.75,4000,True,u,116.41,Riprolls,Riprolls,5.18,True,Fritos,0.43,True,MDMMT_0019,116.41,9302.555,15,9186.145
2018-01-19 14:09:59,-0.13,4000,True,u,31.8,Whatchamacallit,Whatchamacallit,8.56,True,Granolabar,8.43,True,MDMMT_0019,31.8,9838.445,16,9806.645
2018-01-19 14:09:59,0.68,4000,True,u,135.7,Keeblerfudgestripes,Keeblerfudgestripes,5.28,True,PayDay,5.96,True,MDMMT_0019,135.7,10481.56,17,10345.86
2018-01-19 14:09:59,-0.5,4000,True,u,76.115,Hersheymilk_several,Hersheymilk_several,8.25,True,SourSkittles,7.75,True,MDMMT_0019,76.115,11065.35,18,10989.235
2018-01-19 14:09:59,1.02,4000,True,u,35.32,RiceKrispyTreat_small,RiceKrispyTreat_small,0.37,True,Reeses,1.39,True,MDMMT_0019,35.32,11607.34,19,11572.02
2018-01-19 14:09:59,0.49,4000,True,u,9.98,Doritosranch,Doritosranch,4.54,True,Almondjoy,5.03,False,MDMMT_0019,9.98,12123.265,20,12113.285
2018-01-19 14:09:59,-0.26,4000,True,u,46.795,Fritos,Fritos,0.43,True,PringlesRed,0.17,True,MDMMT_0019,46.795,12683.33,21,12636.535
2018-01-19 14:09:59,0.11,4000,True,i,95.02,Whatchamacallit,Slimjim,8.45,True,Whatchamacallit,8.56,True,MDMMT_0019,95.02,13315.355,22,13220.335
2018-01-19 14:09:59,-0.85,4000,True,i,63.34,Lollipopred,Milano,7.45,True,Lollipopred,6.6,True,MDMMT_0019,63.34,13887.335,23,13823.995
2018-01-19 14:09:59,1.34,4000,True,i,100.385,Crunch,RitzBitz2,3.92,True,Crunch,5.26,True,MDMMT_0019,100.385,14493.18,24,14392.795
2018-01-19 14:09:59,-4.56,4000,True,i,78.895,Cheese_PeanutButterCrackers,Toberlorone,4.62,True,Cheese_PeanutButterCrackers,0.06,True,MDMMT_0019,78.895,15076.18,25,14997.285
2018-01-19 14:09:59,1.79,4000,True,u,76.285,PayDay,PayDay,5.96,True,SourSkittles,7.75,True,MDMMT_0019,76.285,15660.13,26,15583.845
2018-01-19 14:09:59,-1.11,4000,True,i,16.02,MilkyWay,Almondjoy,5.03,True,MilkyWay,3.92,True,MDMMT_0019,16.02,16180.15,27,16164.13
2018-01-19 14:09:59,-1.08,4000,True,u,259.595,Jollyranchergreen,Jollyranchergreen,1.14,True,Cheese_PeanutButterCrackers,0.06,True,MDMMT_0019,259.595,16996.26,28,16736.665
2018-01-19 14:09:59,-0.25,4000,True,i,115.955,Twix,TeddyGrahamschocolate,4.01,True,Twix,3.76,True,MDMMT_0019,115.955,17618.195,29,17502.24
2018-01-19 14:09:59,4.29,4000,True,i,68.37,Oreos,KitKat_small,1.67,True,Oreos,5.96,True,MDMMT_0019,68.37,18194.02,30,18125.65
2018-01-19 14:09:59,1.11,4000,True,i,13.41,100grand_small,TeddyGrahamschocolate,4.01,True,100grand_small,5.12,True,MDMMT_0019,13.41,18716.01,31,18702.6
2018-01-19 14:09:59,2.67,4000,True,u,117.015,ChipsAhoy_small,ChipsAhoy_small,4.78,True,Milano,7.45,True,MDMMT_0019,117.015,19337.08,32,19220.065
2018-01-19 14:09:59,-2.45,4000,True,u,38.195,Cheetos,Cheetos,7.48,True,Almondjoy,5.03,True,MDMMT_0019,38.195,19881.125,33,19842.93
2018-01-19 14:09:59,0.1,4000,True,i,115.11,Dots_one,PayDay,5.96,True,Dots_one,6.06,True,MDMMT_0019,115.11,20538.055,34,20422.945
2018-01-19 14:09:59,0.34,4000,True,u,407.82,ChipsAhoy_small,ChipsAhoy_small,4.78,True,100grand_small,5.12,True,MDMMT_0019,407.82,21451.46,35,21043.64
2018-01-19 14:09:59,4.83,4000,True,i,405.42,Cheetos,PopTartsStrawberry,2.65,True,Cheetos,7.48,True,MDMMT_0019,405.42,22365.01,36,21959.59
2018-01-19 14:09:59,-1.17,4000,True,i,41.845,Keeblerfudgestripes,Chocolate_mm,6.45,True,Keeblerfudgestripes,5.28,True,MDMMT_0019,41.845,22910.82,37,22868.975
2018-01-19 14:09:59,0.97,4000,True,i,93.475,Ghiradelli_milk_Almonds,Chocolate_mm,6.45,True,Ghiradelli_milk_Almonds,7.42,True,MDMMT_0019,93.475,23511.79,38,23418.315
2018-01-19 14:09:59,4.24,4000,True,u,7.39,MrGoodbar,MrGoodbar,1.18,False,PeanutMMs,5.42,False,MDMMT_0019,7.39,24025.71,39,24018.32
2018-01-19 14:09:59,-0.3,4000,True,i,432.2,AnimalCrackers,MilkyWay,3.92,True,AnimalCrackers,3.62,True,MDMMT_0019,432.2,24961.725,40,24529.525
2018-01-19 14:09:59,0.43,4000,True,u,44.09,BabyRuth,BabyRuth,2.82,True,Hersheykisses,3.25,True,MDMMT_0019,44.09,25512.705,41,25468.615
2018-01-19 14:09:59,-0.12,4000,True,u,1549.385,3Musketeers,3Musketeers,7.6,True,Cheetos,7.48,True,MDMMT_0019,1549.385,27571.645,42,26022.26
2018-01-19 14:09:59,1.5,4000,False,NaN,4004.525,NaN,AnimalCrackers,3.62,True,100grand_small,5.12,True,MDMMT_0019,4004.525,32083.61,43,28079.085
2018-01-19 14:09:59,-1.08,4000,True,i,1313.28,Dots_one,Funyuns_small,7.14,True,Dots_one,6.06,True,MDMMT_0019,1313.28,33900.35,44,32587.07
2018-01-19 14:09:59,1.01,4000,True,i,212.155,MrGoodbar,PringlesRed,0.17,True,MrGoodbar,1.18,True,MDMMT_0019,212.155,34624.07,45,34411.915
2018-01-19 14:09:59,0.13,4000,True,i,1075.36,Snickers,TeddyGrahamschocolate,4.01,True,Snickers,4.14,True,MDMMT_0019,1075.36,36207.885,46,35132.525
2018-01-19 14:09:59,-2.22,4000,True,u,130.42,Snickers,Snickers,4.14,True,Laffytaffyred_one,1.92,True,MDMMT_0019,130.42,36843.825,47,36713.405
2018-01-19 14:09:59,-0.49,4000,True,u,36.79,KitKat_small,KitKat_small,1.67,True,MrGoodbar,1.18,True,MDMMT_0019,36.79,37387.985,48,37351.195
2018-01-19 14:10:00,0.8,4000,True,i,169.82,WheatThins,Butterfinger,2.57,True,WheatThins,3.37,True,MDMMT_0019,169.82,38104.955,49,37935.135
2018-01-19 14:10:00,-1.39,4000,True,u,247.825,Nutterbutter,Nutterbutter,9.14,True,SourSkittles,7.75,True,MDMMT_0019,247.825,38856.94,50,38609.115
2018-01-19 14:10:00,-0.31,4000,True,u,17.845,RiceKrispyTreat_small,RiceKrispyTreat_small,0.37,True,Cheese_PeanutButterCrackers,0.06,True,MDMMT_0019,17.845,39380.76,51,39362.915
2018-01-19 14:10:00,-1.66,4000,True,i,46.185,WheatThins,Almondjoy,5.03,True,WheatThins,3.37,True,MDMMT_0019,46.185,39983.79,52,39937.605
2018-01-19 14:10:00,3.14,4000,True,u,13.855,Dots_one,Dots_one,6.06,True,Milkduds,9.2,True,MDMMT_0019,13.855,40539.8,53,40525.945
2018-01-19 14:10:00,-0.39,4000,True,i,66.275,Dots_one,Chocolate_mm,6.45,True,Dots_one,6.06,True,MDMMT_0019,66.275,41110.59,54,41044.315
2018-01-19 14:10:00,1.98,4000,True,u,32.89,Chocolate_mm,Chocolate_mm,6.45,True,Granolabar,8.43,True,MDMMT_0019,32.89,41657.795,55,41624.905
2018-01-19 14:10:00,-5.03,4000,True,i,57.005,TootsieRolls,Ghiradelli_milk_Almonds,7.42,True,TootsieRolls,2.39,True,MDMMT_0019,57.005,42263.695,56,42206.69
2018-01-19 14:10:00,-1.1,4000,True,i,165.12,Goldfish,FamousAmos_small,9.39,True,Goldfish,8.29,True,MDMMT_0019,165.12,42957.69,57,42792.57
2018-01-19 14:10:00,0.72,4000,True,i,7.59999999999,starburst,CheesyDoritos,2.18,True,starburst,2.9,False,MDMMT_0019,7.59999999999,43469.5,58,43461.9
2018-01-19 14:10:00,-1.72,4000,True,u,1963.9,Toberlorone,Toberlorone,4.62,True,starburst,2.9,True,MDMMT_0019,1963.9,45937.025,59,43973.125
2018-01-19 14:10:00,-2.57,4000,True,i,50.825,Riprolls,SourSkittles,7.75,True,Riprolls,5.18,True,MDMMT_0019,50.825,46495.435,60,46444.61
2018-01-19 14:10:00,0.08,4000,True,u,207.88,Doritosranch,Doritosranch,4.54,True,Toberlorone,4.62,True,MDMMT_0019,207.88,47207.48,61,46999.6
2018-01-19 14:10:00,0.97,4000,True,i,111.76,Laysclassic,Ghiradelli_milk,1.81,True,Laysclassic,2.78,True,MDMMT_0019,111.76,47824.485,62,47712.725
2018-01-19 14:10:00,-2.39,4000,True,u,11.605,BabyRuth,BabyRuth,2.82,True,Fritos,0.43,True,MDMMT_0019,11.605,48341.47,63,48329.865
2018-01-19 14:10:00,-0.47,4000,True,u,33.27,Hersheykisses,Hersheykisses,3.25,True,Laysclassic,2.78,True,MDMMT_0019,33.27,48878.925,64,48845.655
2018-01-19 14:10:00,0.49,4000,True,i,176.06,Chocolate_mm,Oreos,5.96,True,Chocolate_mm,6.45,True,MDMMT_0019,176.06,49601.385,65,49425.325
2018-01-19 14:10:00,0.25,4000,True,i,93.515,starburst,PopTartsStrawberry,2.65,True,starburst,2.9,True,MDMMT_0019,93.515,50203.445,66,50109.93
2018-01-19 14:10:00,0.25,4000,True,u,122.655,Jollyranchergreen,Jollyranchergreen,1.14,True,Reeses,1.39,True,MDMMT_0019,122.655,50835.375,67,50712.72
2018-01-19 14:10:00,1.55,4000,True,u,6.825,RiceKrispyTreat_small,RiceKrispyTreat_small,0.37,True,Laffytaffyred_one,1.92,True,MDMMT_0019,6.825,51347.47,68,51340.645
2018-01-19 14:10:00,4.96,4000,True,i,41.89,Funyuns_small,CheesyDoritos,2.18,True,Funyuns_small,7.14,True,MDMMT_0019,41.89,51896.205,69,51854.315
2018-01-19 14:10:00,0.14,4000,True,u,70.255,AnimalCrackers,AnimalCrackers,3.62,True,Twix,3.76,True,MDMMT_0019,70.255,52470.095,70,52399.84
2018-01-19 14:10:00,0.77,4000,True,i,46.79,Hersheymilk_several,Cheetos,7.48,True,Hersheymilk_several,8.25,True,MDMMT_0019,46.79,53022.145,71,52975.355
2018-01-19 14:10:00,4.64,4000,True,u,75.81,Ghiradelli_milk,Ghiradelli_milk,1.81,True,Chocolate_mm,6.45,True,MDMMT_0019,75.81,53602.105,72,53526.295
2018-01-19 14:10:00,-0.71,4000,True,u,410.78,Jollyranchergreen,Jollyranchergreen,1.14,True,Fritos,0.43,True,MDMMT_0019,410.78,54522.09,73,54111.31
2018-01-19 14:10:00,-0.75,4000,True,u,165.755,Milkduds,Milkduds,9.2,True,Slimjim,8.45,True,MDMMT_0019,165.755,55193.165,74,55027.41
2018-01-19 14:10:00,-4.8,4000,True,u,148.335,Whatchamacallit,Whatchamacallit,8.56,True,Twix,3.76,True,MDMMT_0019,148.335,55848.145,75,55699.81
2018-01-19 14:10:00,1.75,4000,True,u,116.895,Milano,Milano,7.45,True,Milkduds,9.2,True,MDMMT_0019,116.895,56468.955,76,56352.06
2018-01-19 14:10:00,-0.16,4000,True,i,533.28,Twix,MilkyWay,3.92,True,Twix,3.76,True,MDMMT_0019,533.28,57511.07,77,56977.79
2018-01-19 14:10:00,0.38,4000,True,u,325.175,Crunch,Crunch,5.26,True,FlamingCheetos,5.64,True,MDMMT_0019,325.175,58343.035,78,58017.86
2018-01-19 14:10:00,4.51,4000,True,i,239.275,Doritosranch,Sourpatch,0.03,True,Doritosranch,4.54,True,MDMMT_0019,239.275,59090.94,79,58851.665
2018-01-19 14:10:00,2.4,4000,True,i,241.365,Butterfinger,PringlesRed,0.17,True,Butterfinger,2.57,True,MDMMT_0019,241.365,59835.92,80,59594.555
2018-01-19 14:10:00,-0.13,4000,True,i,244.765,PopTartsStrawberry,Laysclassic,2.78,True,PopTartsStrawberry,2.65,True,MDMMT_0019,244.765,60589.8,81,60345.035
2018-01-19 14:10:00,5.38,4000,True,i,126.57,FamousAmos_small,TeddyGrahamschocolate,4.01,True,FamousAmos_small,9.39,True,MDMMT_0019,126.57,61225.915,82,61099.345
2018-01-19 14:10:00,4.93,4000,True,i,268.32,SourSkittles,BabyRuth,2.82,True,SourSkittles,7.75,True,MDMMT_0019,268.32,62001.87,83,61733.55
2018-01-19 14:10:00,-0.28,4000,True,i,204.475,Reeses,KitKat_small,1.67,True,Reeses,1.39,True,MDMMT_0019,204.475,62715.82,84,62511.345
2018-01-19 14:10:00,0.96,4000,True,i,188.43,Whatchamacallit,3Musketeers,7.6,True,Whatchamacallit,8.56,True,MDMMT_0019,188.43,63409.68,85,63221.25
2018-01-19 14:10:00,0.47,4000,True,u,101.905,starburst,starburst,2.9,True,WheatThins,3.37,True,MDMMT_0019,101.905,64016.785,86,63914.88
2018-01-19 14:10:00,0.16,4000,True,u,172.95,Goldfish,Goldfish,8.29,True,Slimjim,8.45,True,MDMMT_0019,172.95,64694.73,87,64521.78
2018-01-19 14:10:00,0.31,4000,True,i,554.15,Milano,Funyuns_small,7.14,True,Milano,7.45,True,MDMMT_0019,554.15,65754.6,88,65200.45
2018-01-19 14:10:00,4.57,4000,True,u,122.53,Reeses,Reeses,1.39,True,PayDay,5.96,True,MDMMT_0019,122.53,66384.73,89,66262.2
2018-01-19 14:10:00,-0.02,4000,True,i,10.045,Crunch,Keeblerfudgestripes,5.28,True,Crunch,5.26,True,MDMMT_0019,10.045,66900.62,90,66890.575
2018-01-19 14:10:00,-1.43,4000,True,u,2592.16,Laysclassic,Laysclassic,2.78,True,MrsFields,1.35,True,MDMMT_0019,2592.16,69995.505,91,67403.345
2018-01-19 14:10:00,1.75,4000,True,u,266.98,Fritos,Fritos,0.43,True,CheesyDoritos,2.18,True,MDMMT_0019,266.98,70768.465,92,70501.485
2018-01-19 14:10:00,1.42,4000,True,u,73.845,Twix,Twix,3.76,True,Riprolls,5.18,True,MDMMT_0019,73.845,71345.45,93,71271.605
2018-01-19 14:10:00,4.69,4000,True,u,149.105,Skittles,Skittles,0.34,True,Almondjoy,5.03,True,MDMMT_0019,149.105,72001.425,94,71852.32
2018-01-19 14:10:00,0.06,4000,True,u,66.445,Nutterbutter,Nutterbutter,9.14,True,Milkduds,9.2,True,MDMMT_0019,66.445,72576.165,95,72509.72
2018-01-19 14:10:00,-0.14,4000,True,u,39.51,PringlesRed,PringlesRed,0.17,True,Sourpatch,0.03,True,MDMMT_0019,39.51,73134.19,96,73094.68
2018-01-19 14:10:00,0.17,4000,True,u,97.11,PringlesRed,PringlesRed,0.17,True,Skittles,0.34,True,MDMMT_0019,97.11,73736.28,97,73639.17
2018-01-19 14:10:00,-2.37,4000,True,u,13.415,Twix,Twix,3.76,True,Reeses,1.39,True,MDMMT_0019,13.415,74253.08,98,74239.665
2018-01-19 14:10:00,-0.7,4000,True,u,45.415,MrsFields,MrsFields,1.35,True,Ruffles,0.65,True,MDMMT_0019,45.415,74805.205,99,74759.79
2018-01-19 14:10:00,-2.41,4000,True,u,34.505,Laysclassic,Laysclassic,2.78,True,RiceKrispyTreat_small,0.37,True,MDMMT_0019,34.505,75377.185,100,75342.68
2018-01-19 14:10:00,-0.82,4000,True,u,39.41,Ghiradelli_milk_Almonds,Ghiradelli_milk_Almonds,7.42,True,Lollipopred,6.6,True,MDMMT_0019,39.41,75968.11,101,75928.7
2018-01-19 14:10:00,2.08,4000,True,u,68.085,3Musketeers,3Musketeers,7.6,True,Cheezits,9.68,True,MDMMT_0019,68.085,76575.99,102,76507.905
2018-01-19 14:10:00,1.43,4000,True,i,20.995,Butterfinger,Jollyranchergreen,1.14,True,Butterfinger,2.57,True,MDMMT_0019,20.995,77114.045,103,77093.05
2018-01-19 14:10:00,5.06,4000,True,u,10.97,WheatThins,WheatThins,3.37,True,Granolabar,8.43,True,MDMMT_0019,10.97,77675.09,104,77664.12
2018-01-19 14:10:00,-4.29,4000,True,i,98.165,MrsFields,FlamingCheetos,5.64,True,MrsFields,1.35,True,MDMMT_0019,98.165,78279.09,105,78180.925
2018-01-19 14:10:00,2.11,4000,True,u,34.105,Jollyranchergreen,Jollyranchergreen,1.14,True,Hersheykisses,3.25,True,MDMMT_0019,34.105,78818.895,106,78784.79
2018-01-19 14:10:00,2.81,4000,True,u,47.725,FlamingCheetos,FlamingCheetos,5.64,True,Slimjim,8.45,True,MDMMT_0019,47.725,79368.86,107,79321.135
2018-01-19 14:10:00,1.47,4000,True,i,77.7,Ghiradelli_milk,Skittles,0.34,True,Ghiradelli_milk,1.81,True,MDMMT_0019,77.7,79954.105,108,79876.405
2018-01-19 14:10:00,3.01,4000,True,i,21.18,Goldfish,Keeblerfudgestripes,5.28,True,Goldfish,8.29,True,MDMMT_0019,21.18,80481.865,109,80460.685
2018-01-19 14:10:00,-2.48,4000,True,i,48.765,100grand_small,3Musketeers,7.6,True,100grand_small,5.12,True,MDMMT_0019,48.765,81038.03,110,80989.265
2018-01-19 14:10:00,-0.83,4000,True,u,31.635,FamousAmos_small,FamousAmos_small,9.39,True,Whatchamacallit,8.56,True,MDMMT_0019,31.635,81578.01,111,81546.375
2018-01-19 14:10:00,0.22,4000,True,i,54.94,Snickers,RitzBitz2,3.92,True,Snickers,4.14,True,MDMMT_0019,54.94,82137.82,112,82082.88
2018-01-19 14:10:00,-0.17,4000,True,u,64.38,MrsFields,MrsFields,1.35,True,MrGoodbar,1.18,True,MDMMT_0019,64.38,82705.875,113,82641.495
2018-01-19 14:10:00,1.53,4000,True,i,30.14,ChipsAhoy_small,Hersheykisses,3.25,True,ChipsAhoy_small,4.78,True,MDMMT_0019,30.14,83239.82,114,83209.68
2018-01-19 14:10:00,-0.06,4000,True,i,76.885,100grand_small,Riprolls,5.18,True,100grand_small,5.12,True,MDMMT_0019,76.885,83853.65,115,83776.765
2018-01-19 14:10:00,4.75,4000,False,NaN,4336.495,NaN,RiceKrispyTreat_small,0.37,True,100grand_small,5.12,True,MDMMT_0019,4336.495,88699.18,116,84362.685
2018-01-19 14:10:00,0.54,4000,False,NaN,5341.905,NaN,Lollipopred,6.6,True,Funyuns_small,7.14,True,MDMMT_0019,5341.905,94788.275,117,89446.37
2018-01-19 14:10:00,-0.25,4000,False,NaN,5326.425,NaN,Almondjoy,5.03,True,ChipsAhoy_small,4.78,True,MDMMT_0019,5326.425,100865.295,118,95538.87
2018-01-19 14:10:00,5.22,4000,False,NaN,4993.885,NaN,RitzBitz2,3.92,True,Nutterbutter,9.14,True,MDMMT_0019,4993.885,106440.975,119,101447.09
2018-01-19 14:10:00,-2.6,4000,False,NaN,5092.4,NaN,Whatchamacallit,8.56,True,PayDay,5.96,True,MDMMT_0019,5092.4,112645.215,120,107552.815
2018-01-19 14:10:00,-1.41,4000,False,NaN,4991.21,NaN,PeanutMMs,5.42,True,TeddyGrahamschocolate,4.01,True,MDMMT_0019,4991.21,118521.625,121,113530.415
2018-01-19 14:10:00,2.15,4000,False,NaN,5629.665,NaN,Sourpatch,0.03,True,CheesyDoritos,2.18,True,MDMMT_0019,5629.665,125061.8,122,119432.135
2018-01-19 14:10:00,-0.03,4000,False,NaN,4870.5,NaN,Cheese_PeanutButterCrackers,0.06,True,Sourpatch,0.03,True,MDMMT_0019,4870.5,131683.355,123,126812.855
2018-01-19 14:10:00,-1.72,4000,False,NaN,5979.22,NaN,Nutterbutter,9.14,True,Ghiradelli_milk_Almonds,7.42,True,MDMMT_0019,5979.22,138412.22,124,132433.0
2018-01-19 14:10:00,-2.19,4000,False,NaN,5318.52,NaN,WheatThins,3.37,True,MrGoodbar,1.18,True,MDMMT_0019,5318.52,144846.82,125,139528.3
2018-01-19 14:10:00,5.28,4000,False,NaN,4000.59,NaN,MilkyWay,3.92,True,Milkduds,9.2,True,MDMMT_0019,4000.59,149464.84,126,145464.25
2018-01-19 14:10:00,-1.18,4000,True,i,71.865,PeanutMMs,Lollipopred,6.6,True,PeanutMMs,5.42,True,MDMMT_0019,71.865,150040.915,127,149969.05
2018-01-19 14:10:00,0.69,4000,True,u,62.545,3Musketeers,3Musketeers,7.6,True,Goldfish,8.29,True,MDMMT_0019,62.545,150609.715,128,150547.17
2018-01-19 14:10:01,0.86,4000,True,i,59.5,ChipsAhoy_small,RitzBitz2,3.92,True,ChipsAhoy_small,4.78,True,MDMMT_0019,59.5,151173.67,129,151114.17
2018-01-19 14:10:01,-1.47,4000,True,u,40.375,PopTartsStrawberry,PopTartsStrawberry,2.65,True,MrGoodbar,1.18,True,MDMMT_0019,40.375,151720.72,130,151680.345
2018-01-19 14:10:01,-0.36,4000,True,i,32.92,Keeblerfudgestripes,FlamingCheetos,5.64,True,Keeblerfudgestripes,5.28,True,MDMMT_0019,32.92,152298.815,131,152265.895
2018-01-19 14:10:01,-0.26,4000,True,i,111.27,Laffytaffyred_one,CheesyDoritos,2.18,True,Laffytaffyred_one,1.92,True,MDMMT_0019,111.27,152947.825,132,152836.555
2018-01-19 14:10:01,-1.61,4000,True,u,3.18999999997,KitKat_small,KitKat_small,1.67,True,Cheese_PeanutButterCrackers,0.06,True,MDMMT_0019,3.18999999997,153457.02,133,153453.83
2018-01-19 14:10:01,0.95,4000,True,i,91.13,Milkduds,Hersheymilk_several,8.25,True,Milkduds,9.2,True,MDMMT_0019,91.13,154053.615,134,153962.485
2018-01-19 14:10:01,1.04,4000,True,u,92.73,Snickers,Snickers,4.14,True,Riprolls,5.18,True,MDMMT_0019,92.73,154651.7,135,154558.97
2018-01-19 14:10:01,1.5,4000,True,i,72.945,FlamingCheetos,Snickers,4.14,True,FlamingCheetos,5.64,True,MDMMT_0019,72.945,155228.56,136,155155.615
2018-01-19 14:10:01,-0.21,4000,True,u,14.22,Laysclassic,Laysclassic,2.78,True,Butterfinger,2.57,True,MDMMT_0019,14.22,155745.73,137,155731.51
2018-01-19 14:10:01,5.35,4000,True,i,77.995,Hersheymilk_several,starburst,2.9,True,Hersheymilk_several,8.25,True,MDMMT_0019,77.995,156330.535,138,156252.54
2018-01-19 14:10:01,0.37,4000,True,u,66.845,Ghiradelli_milk,Ghiradelli_milk,1.81,True,CheesyDoritos,2.18,True,MDMMT_0019,66.845,156902.61,139,156835.765
2018-01-19 14:10:01,-0.15,4000,True,u,111.895,Riprolls,Riprolls,5.18,True,Almondjoy,5.03,True,MDMMT_0019,111.895,157518.585,140,157406.69
2018-01-19 14:10:01,0.0,4000,True,u,52.945,Oreos,Oreos,5.96,True,PayDay,5.96,True,MDMMT_0019,52.945,158075.6,141,158022.655
2018-01-19 14:10:01,0.68,4000,True,u,64.865,SourSkittles,SourSkittles,7.75,True,Granolabar,8.43,True,MDMMT_0019,64.865,158647.375,142,158582.51
2018-01-19 14:10:01,1.5,4000,True,u,90.385,FlamingCheetos,FlamingCheetos,5.64,True,Funyuns_small,7.14,True,MDMMT_0019,90.385,159245.555,143,159155.17
2018-01-19 14:10:01,-0.92,4000,True,u,91.01,Doritosranch,Doritosranch,4.54,True,AnimalCrackers,3.62,True,MDMMT_0019,91.01,159839.385,144,159748.375
2018-01-19 14:10:01,-0.26,4000,True,i,22.68,TootsieRolls,PopTartsStrawberry,2.65,True,TootsieRolls,2.39,True,MDMMT_0019,22.68,160368.37,145,160345.69
2018-01-19 14:10:01,0.54,4000,True,u,34.92,PeanutMMs,PeanutMMs,5.42,True,Oreos,5.96,True,MDMMT_0019,34.92,161108.26,146,161073.34
2018-01-19 14:10:01,3.08,4000,True,u,88.43,Lollipopred,Lollipopred,6.6,True,Cheezits,9.68,True,MDMMT_0019,88.43,161700.415,147,161611.985
2018-01-19 14:10:01,-0.28,4000,True,u,87.765,Ruffles,Ruffles,0.65,True,RiceKrispyTreat_small,0.37,True,MDMMT_0019,87.765,162292.33,148,162204.565
2018-01-19 14:10:01,0.16,4000,True,i,2.33500000002,PeanutMMs,Crunch,5.26,True,PeanutMMs,5.42,True,MDMMT_0019,2.33500000002,162797.25,149,162794.915
2018-01-19 14:10:01,-0.86,4000,True,u,0.524999999965,Hersheykisses,Hersheykisses,3.25,True,TootsieRolls,2.39,True,MDMMT_0019,0.524999999965,163302.21,150,163301.685
2018-01-19 14:10:01,1.85,4000,True,i,171.08,Slimjim,Lollipopred,6.6,True,Slimjim,8.45,True,MDMMT_0019,171.08,163979.335,151,163808.255
2018-01-19 14:10:01,-0.55,4000,True,u,36.47,WheatThins,WheatThins,3.37,True,BabyRuth,2.82,True,MDMMT_0019,36.47,164520.31,152,164483.84
2018-01-19 14:10:01,2.29,4000,True,u,4.58499999999,Oreos,Oreos,5.96,True,Hersheymilk_several,8.25,True,MDMMT_0019,4.58499999999,165065.12,153,165060.535
2018-01-19 14:10:01,-0.9,4000,True,u,28.12,BabyRuth,BabyRuth,2.82,True,Laffytaffyred_one,1.92,True,MDMMT_0019,28.12,165601.17,154,165573.05
2018-01-19 14:10:01,-4.61,4000,True,i,120.73,Ruffles,Crunch,5.26,True,Ruffles,0.65,True,MDMMT_0019,120.73,166264.235,155,166143.505
2018-01-19 14:10:01,-1.91,4000,True,i,73.695,Cheetos,FamousAmos_small,9.39,True,Cheetos,7.48,True,MDMMT_0019,73.695,166842.2,156,166768.505
2018-01-19 14:10:01,-1.01,4000,True,i,39.93,Skittles,MrsFields,1.35,True,Skittles,0.34,True,MDMMT_0019,39.93,167385.98,157,167346.05
2018-01-19 14:10:01,-0.12,4000,True,i,37.14,Hersheykisses,WheatThins,3.37,True,Hersheykisses,3.25,True,MDMMT_0019,37.14,167925.99,158,167888.85
2018-01-19 14:10:01,-0.14,4000,True,u,15.675,Granolabar,Granolabar,8.43,True,Goldfish,8.29,True,MDMMT_0019,15.675,168479.155,159,168463.48
2018-01-19 14:10:01,0.0,4000,True,u,38.38,RitzBitz2,RitzBitz2,3.92,True,MilkyWay,3.92,True,MDMMT_0019,38.38,169023.055,160,168984.675
2018-01-19 14:10:01,5.54,4000,True,i,152.17,Cheezits,Snickers,4.14,True,Cheezits,9.68,True,MDMMT_0019,152.17,169720.91,161,169568.74
2018-01-19 14:10:01,-0.54,4000,True,u,151.815,Cheezits,Cheezits,9.68,True,Nutterbutter,9.14,True,MDMMT_0019,151.815,170379.98,162,170228.165
2018-01-19 14:10:01,-1.46,4000,True,u,17.235,Ghiradelli_milk_Almonds,Ghiradelli_milk_Almonds,7.42,True,PayDay,5.96,True,MDMMT_0019,17.235,170904.875,163,170887.64
2018-01-19 14:10:01,-0.48,4000,True,u,519.22,Toberlorone,Toberlorone,4.62,True,Snickers,4.14,True,MDMMT_0019,519.22,171938.73,164,171419.51
2018-01-19 14:10:01,0.32,4000,True,i,108.14,KitKat_small,MrsFields,1.35,True,KitKat_small,1.67,True,MDMMT_0019,108.14,172551.71,165,172443.57
2018-01-19 14:10:01,0.31,4000,True,u,60.41,Sourpatch,Sourpatch,0.03,True,Skittles,0.34,True,MDMMT_0019,60.41,173114.92,166,173054.51
2018-01-19 14:10:01,0.08,4000,True,u,185.705,BabyRuth,BabyRuth,2.82,True,starburst,2.9,True,MDMMT_0019,185.705,173805.685,167,173619.98
2018-01-19 14:10:01,-0.53,4000,True,i,103.62,TeddyGrahamschocolate,Doritosranch,4.54,True,TeddyGrahamschocolate,4.01,True,MDMMT_0019,103.62,174412.7,168,174309.08
2018-01-19 14:10:01,-0.21,4000,True,u,96.6,Reeses,Reeses,1.39,True,MrGoodbar,1.18,True,MDMMT_0019,96.6,175017.705,169,174921.105
2018-01-19 14:10:01,0.27,4000,True,i,152.295,SourSkittles,Cheetos,7.48,True,SourSkittles,7.75,True,MDMMT_0019,152.295,175673.635,170,175521.34
2018-01-19 14:10:01,-1.74,4000,True,u,176.46,TootsieRolls,TootsieRolls,2.39,True,Ruffles,0.65,True,MDMMT_0019,176.46,176355.6,171,176179.14
2018-01-19 14:10:01,-2.6,4000,True,i,111.405,Doritosranch,Funyuns_small,7.14,True,Doritosranch,4.54,True,MDMMT_0019,111.405,176970.73,172,176859.325
2018-01-19 14:10:01,-2.25,4000,True,u,33.105,starburst,starburst,2.9,True,Ruffles,0.65,True,MDMMT_0019,33.105,177509.53,173,177476.425
2018-01-19 14:10:01,0.86,4000,True,i,155.195,Toberlorone,Twix,3.76,True,Toberlorone,4.62,True,MDMMT_0019,155.195,178208.455,174,178053.26
2018-01-19 14:10:01,-1.42,4000,True,u,45.0,Whatchamacallit,Whatchamacallit,8.56,True,Funyuns_small,7.14,True,MDMMT_0019,45.0,178756.53,175,178711.53
2018-01-19 14:10:01,5.04,4000,True,u,170.445,Hersheykisses,Hersheykisses,3.25,True,Goldfish,8.29,True,MDMMT_0019,170.445,179462.625,176,179292.18
2018-01-19 14:10:01,-2.31,4000,True,u,62.64,PopTartsStrawberry,PopTartsStrawberry,2.65,True,Skittles,0.34,True,MDMMT_0019,62.64,180028.375,177,179965.735
2018-01-19 14:10:01,0.49,4000,True,u,128.325,Ruffles,Ruffles,0.65,True,Jollyranchergreen,1.14,True,MDMMT_0019,128.325,180670.56,178,180542.235
2018-01-19 14:10:01,-4.82,4000,True,u,171.075,3Musketeers,3Musketeers,7.6,True,Laysclassic,2.78,True,MDMMT_0019,171.075,181347.415,179,181176.34
2018-01-19 14:10:01,0.62,4000,True,i,100.48,Ruffles,Sourpatch,0.03,True,Ruffles,0.65,True,MDMMT_0019,100.48,181955.47,180,181854.99
2018-01-19 14:10:01,0.4,4000,True,i,143.635,Riprolls,ChipsAhoy_small,4.78,True,Riprolls,5.18,True,MDMMT_0019,143.635,182603.355,181,182459.72
2018-01-19 14:10:01,-2.24,4000,True,u,48.92,MilkyWay,MilkyWay,3.92,True,FigNewton_small,1.68,True,MDMMT_0019,48.92,183159.42,182,183110.5
2018-01-19 14:10:01,-1.25,4000,True,i,101.74,Granolabar,Cheezits,9.68,True,Granolabar,8.43,True,MDMMT_0019,101.74,183790.345,183,183688.605
2018-01-19 14:10:01,-4.83,4000,True,u,6.62,Slimjim,Slimjim,8.45,True,AnimalCrackers,3.62,True,MDMMT_0019,6.62,184300.19,184,184293.57
2018-01-19 14:10:01,-1.49,4000,True,i,133.77,Oreos,Milano,7.45,True,Oreos,5.96,True,MDMMT_0019,133.77,184941.38,185,184807.61
2018-01-19 14:10:01,-0.65,4000,True,i,92.44,3Musketeers,Hersheymilk_several,8.25,True,3Musketeers,7.6,True,MDMMT_0019,92.44,185537.145,186,185444.705
2018-01-19 14:10:01,-0.29,4000,True,i,95.86,FamousAmos_small,Cheezits,9.68,True,FamousAmos_small,9.39,True,MDMMT_0019,95.86,186136.305,187,186040.445
2018-01-19 14:10:01,0.65,4000,True,i,76.965,Butterfinger,Laffytaffyred_one,1.92,True,Butterfinger,2.57,True,MDMMT_0019,76.965,186722.325,188,186645.36
2018-01-19 14:10:01,0.06,4000,True,i,118.97,Fritos,RiceKrispyTreat_small,0.37,True,Fritos,0.43,True,MDMMT_0019,118.97,187346.095,189,187227.125
2018-01-19 14:10:01,-2.2,4000,True,u,145.155,TeddyGrahamschocolate,TeddyGrahamschocolate,4.01,True,Ghiradelli_milk,1.81,True,MDMMT_0019,145.155,187997.05,190,187851.895
2018-01-19 14:10:01,1.51,4000,True,u,163.235,PringlesRed,PringlesRed,0.17,True,FigNewton_small,1.68,True,MDMMT_0019,163.235,188669.21,191,188505.975
2018-01-19 14:10:01,2.99,4000,True,i,493.695,Hersheymilk_several,Crunch,5.26,True,Hersheymilk_several,8.25,True,MDMMT_0019,493.695,189670.16,192,189176.465
2018-01-19 14:10:01,0.97,4000,True,u,132.55,FigNewton_small,FigNewton_small,1.68,True,PopTartsStrawberry,2.65,True,MDMMT_0019,132.55,190311.13,193,190178.58
2018-01-19 14:10:01,0.18,4000,True,i,172.56,Butterfinger,TootsieRolls,2.39,True,Butterfinger,2.57,True,MDMMT_0019,172.56,190988.955,194,190816.395
2018-01-19 14:10:01,2.27,4000,True,u,1254.075,MrsFields,MrsFields,1.35,True,AnimalCrackers,3.62,True,MDMMT_0019,1254.075,192749.85,195,191495.775
2018-01-19 14:10:01,-0.25,4000,True,i,151.645,Nutterbutter,FamousAmos_small,9.39,True,Nutterbutter,9.14,True,MDMMT_0019,151.645,193411.015,196,193259.37
2018-01-19 14:10:01,3.01,4000,True,i,1104.5,Granolabar,PeanutMMs,5.42,True,Granolabar,8.43,True,MDMMT_0019,1104.5,195021.905,197,193917.405
2018-01-19 14:10:01,-4.88,4000,True,u,166.12,Milano,Milano,7.45,True,Butterfinger,2.57,True,MDMMT_0019,166.12,195694.895,198,195528.775
2018-01-19 14:10:01,4.68,4000,True,u,212.845,Laffytaffyred_one,Laffytaffyred_one,1.92,True,Lollipopred,6.6,True,MDMMT_0019,212.845,196412.85,199,196200.005
2018-01-19 14:10:01,0.8,4000,True,i,232.29,Dots_one,Crunch,5.26,True,Dots_one,6.06,True,MDMMT_0019,232.29,197154.835,200,196922.545
2018-01-19 14:10:01,-0.22,4000,True,u,482.19,FlamingCheetos,FlamingCheetos,5.64,True,PeanutMMs,5.42,True,MDMMT_0019,482.19,198141.77,201,197659.58
2018-01-19 14:10:01,1.72,4000,True,i,375.28,Doritosranch,BabyRuth,2.82,True,Doritosranch,4.54,True,MDMMT_0019,375.28,199022.84,202,198647.56
2018-01-19 14:10:01,0.97,4000,True,i,321.43,Slimjim,Cheetos,7.48,True,Slimjim,8.45,True,MDMMT_0019,321.43,199848.51,203,199527.08
2018-01-19 14:10:01,-0.28,4000,True,u,210.345,Skittles,Skittles,0.34,True,Cheese_PeanutButterCrackers,0.06,True,MDMMT_0019,210.345,200566.645,204,200356.3
2018-01-19 14:10:01,2.8,4000,True,u,175.375,Toberlorone,Toberlorone,4.62,True,Ghiradelli_milk_Almonds,7.42,True,MDMMT_0019,175.375,201249.565,205,201074.19
2018-01-19 14:10:01,-4.61,4000,True,i,873.375,PringlesRed,ChipsAhoy_small,4.78,True,PringlesRed,0.17,True,MDMMT_0019,873.375,202625.575,206,201752.2
2018-01-19 14:10:01,-1.36,4000,True,i,91.37,Sourpatch,Reeses,1.39,True,Sourpatch,0.03,True,MDMMT_0019,91.37,203221.49,207,203130.12
2018-01-19 14:10:01,-0.5,4000,True,i,47.745,Toberlorone,100grand_small,5.12,True,Toberlorone,4.62,True,MDMMT_0019,47.745,203776.385,208,203728.64
2018-01-19 14:10:01,0.3,4000,True,u,132.4,AnimalCrackers,AnimalCrackers,3.62,True,RitzBitz2,3.92,True,MDMMT_0019,132.4,204440.475,209,204308.075
