date,maxTrialTime,rating,receivedResponse,rt,stimulus1,stimulus1Loaded,subjectID,trialDuration,trialEndTime,trialN,trialStartTime
2018-01-19 14:05:37,NaN,4.62,True,1300.145,Toberlorone,True,MDMMT_0019,1300.145,1375.895,0,75.75
2018-01-19 14:05:37,NaN,2.57,True,426.5,Butterfinger,True,MDMMT_0019,426.5,1804.48,1,1377.98
2018-01-19 14:05:37,NaN,1.14,True,265.0,Jollyranchergreen,True,MDMMT_0019,265.0,2070.945,2,1805.945
2018-01-19 14:05:37,NaN,0.34,True,232.115,Skittles,True,MDMMT_0019,232.115,2305.48,3,2073.365
2018-01-19 14:05:37,NaN,1.68,True,231.83,FigNewton_small,True,MDMMT_0019,231.83,2539.565,4,2307.735
2018-01-19 14:05:37,NaN,2.9,True,232.005,starburst,True,MDMMT_0019,232.005,2773.755,5,2541.75
2018-01-19 14:05:37,NaN,4.01,True,240.115,TeddyGrahamschocolate,True,MDMMT_0019,240.115,3016.295,6,2776.18
2018-01-19 14:05:37,NaN,5.42,True,224.07,PeanutMMs,True,MDMMT_0019,224.07,3242.545,7,3018.475
2018-01-19 14:05:37,NaN,6.45,True,223.54,Chocolate_mm,True,MDMMT_0019,223.54,3468.695,8,3245.155
2018-01-19 14:05:37,NaN,7.45,True,265.675,Milano,True,MDMMT_0019,265.675,3735.98,9,3470.305
2018-01-19 14:05:37,NaN,5.96,True,223.56,PayDay,True,MDMMT_0019,223.56,3961.815,10,3738.255
2018-01-19 14:05:37,NaN,5.28,True,215.57,Keeblerfudgestripes,True,MDMMT_0019,215.57,4179.73,11,3964.16
2018-01-19 14:05:37,NaN,3.92,True,224.735,MilkyWay,True,MDMMT_0019,224.735,4406.45,12,4181.715
2018-01-19 14:05:37,NaN,2.39,True,231.81,TootsieRolls,True,MDMMT_0019,231.81,4640.665,13,4408.855
2018-01-19 14:05:37,NaN,1.18,True,223.11,MrGoodbar,True,MDMMT_0019,223.11,4866.59,14,4643.48
2018-01-19 14:05:37,NaN,0.43,True,232.675,Fritos,True,MDMMT_0019,232.675,5101.39,15,4868.715
2018-01-19 14:05:37,NaN,1.81,True,239.85,Ghiradelli_milk,True,MDMMT_0019,239.85,5343.45,16,5103.6
2018-01-19 14:05:37,NaN,3.25,True,231.67,Hersheykisses,True,MDMMT_0019,231.67,5577.765,17,5346.095
2018-01-19 14:05:37,NaN,5.64,True,256.355,FlamingCheetos,True,MDMMT_0019,256.355,5836.535,18,5580.18
2018-01-19 14:05:37,NaN,7.75,True,272.455,SourSkittles,True,MDMMT_0019,272.455,6111.14,19,5838.685
2018-01-19 14:05:37,NaN,8.56,True,215.68,Whatchamacallit,True,MDMMT_0019,215.68,6329.465,20,6113.785
2018-01-19 14:05:37,NaN,9.2,True,280.37,Milkduds,True,MDMMT_0019,280.37,6612.235,21,6331.865
2018-01-19 14:05:37,NaN,8.25,True,320.895,Hersheymilk_several,True,MDMMT_0019,320.895,6935.595,22,6614.7
2018-01-19 14:05:37,NaN,5.18,True,724.5,Riprolls,True,MDMMT_0019,724.5,7662.41,23,6937.91
2018-01-19 14:05:37,NaN,5.12,True,231.24,100grand_small,True,MDMMT_0019,231.24,7896.585,24,7665.345
2018-01-19 14:05:37,NaN,2.78,True,329.59,Laysclassic,True,MDMMT_0019,329.59,8228.45,25,7898.86
2018-01-19 14:05:37,NaN,1.39,True,255.84,Reeses,True,MDMMT_0019,255.84,8486.76,26,8230.92
2018-01-19 14:05:37,NaN,0.17,True,502.585,PringlesRed,True,MDMMT_0019,502.585,8991.59,27,8489.005
2018-01-19 14:05:37,NaN,0.03,True,345.685,Sourpatch,True,MDMMT_0019,345.685,9339.455,28,8993.77
2018-01-19 14:05:37,NaN,0.37,True,700.25,RiceKrispyTreat_small,True,MDMMT_0019,700.25,10041.97,29,9341.72
2018-01-19 14:05:37,NaN,0.06,True,620.025,Cheese_PeanutButterCrackers,True,MDMMT_0019,620.025,10664.16,30,10044.135
2018-01-19 14:05:37,NaN,0.65,True,515.55,Ruffles,True,MDMMT_0019,515.55,11181.44,31,10665.89
2018-01-19 14:05:37,NaN,1.67,True,289.595,KitKat_small,True,MDMMT_0019,289.595,11472.65,32,11183.055
2018-01-19 14:05:37,NaN,4.14,True,248.125,Snickers,True,MDMMT_0019,248.125,11722.915,33,11474.79
2018-01-19 14:05:37,NaN,5.96,True,215.535,Oreos,True,MDMMT_0019,215.535,11940.975,34,11725.44
2018-01-19 14:05:37,NaN,7.48,True,431.865,Cheetos,True,MDMMT_0019,431.865,12377.15,35,11945.285
2018-01-19 14:05:37,NaN,8.29,True,280.82,Goldfish,True,MDMMT_0019,280.82,12660.125,36,12379.305
2018-01-19 14:05:37,NaN,9.68,True,224.14,Cheezits,True,MDMMT_0019,224.14,12886.555,37,12662.415
2018-01-19 14:05:38,NaN,9.39,True,297.07,FamousAmos_small,True,MDMMT_0019,297.07,13185.75,38,12888.68
2018-01-19 14:05:38,NaN,8.45,True,199.05,Slimjim,True,MDMMT_0019,199.05,13387.86,39,13188.81
2018-01-19 14:05:38,NaN,7.14,True,280.58,Funyuns_small,True,MDMMT_0019,280.58,13670.515,40,13389.935
2018-01-19 14:05:38,NaN,5.03,True,304.155,Almondjoy,True,MDMMT_0019,304.155,13977.1,41,13672.945
2018-01-19 14:05:38,NaN,3.62,True,239.785,AnimalCrackers,True,MDMMT_0019,239.785,14219.765,42,13979.98
2018-01-19 14:05:38,NaN,2.82,True,535.33,BabyRuth,True,MDMMT_0019,535.33,14757.06,43,14221.73
2018-01-19 14:05:38,NaN,3.76,True,377.805,Twix,True,MDMMT_0019,377.805,15137.17,44,14759.365
2018-01-19 14:05:38,NaN,4.78,True,264.05,ChipsAhoy_small,True,MDMMT_0019,264.05,15403.375,45,15139.325
2018-01-19 14:05:38,NaN,7.42,True,273.945,Ghiradelli_milk_Almonds,True,MDMMT_0019,273.945,15678.895,46,15404.95
2018-01-19 14:05:38,NaN,8.43,True,329.425,Granolabar,True,MDMMT_0019,329.425,16009.795,47,15680.37
2018-01-19 14:05:38,NaN,6.6,True,264.32,Lollipopred,True,MDMMT_0019,264.32,16276.535,48,16012.215
2018-01-19 14:05:38,NaN,5.26,True,263.045,Crunch,True,MDMMT_0019,263.045,16542.74,49,16279.695
2018-01-19 14:05:38,NaN,3.92,True,264.66,RitzBitz2,True,MDMMT_0019,264.66,16809.82,50,16545.16
2018-01-19 14:05:38,NaN,2.65,True,255.63,PopTartsStrawberry,True,MDMMT_0019,255.63,17068.265,51,16812.635
2018-01-19 14:05:38,NaN,1.92,True,240.08,Laffytaffyred_one,True,MDMMT_0019,240.08,17310.41,52,17070.33
2018-01-19 14:05:38,NaN,1.35,True,305.025,MrsFields,True,MDMMT_0019,305.025,17617.89,53,17312.865
2018-01-19 14:05:38,NaN,2.18,True,272.635,CheesyDoritos,True,MDMMT_0019,272.635,17892.77,54,17620.135
2018-01-19 14:05:38,NaN,3.37,True,231.65,WheatThins,True,MDMMT_0019,231.65,18126.745,55,17895.095
2018-01-19 14:05:38,NaN,4.54,True,231.65,Doritosranch,True,MDMMT_0019,231.65,18360.865,56,18129.215
2018-01-19 14:05:38,NaN,6.06,True,247.795,Dots_one,True,MDMMT_0019,247.795,18611.41,57,18363.615
2018-01-19 14:05:38,NaN,7.6,True,239.96,3Musketeers,True,MDMMT_0019,239.96,18853.9,58,18613.94
2018-01-19 14:05:38,NaN,9.14,True,264.645,Nutterbutter,True,MDMMT_0019,264.645,19120.775,59,18856.13
