date,delta,maxTrialTime,receivedResponse,rsp,rt,selected,stimulus1,stimulus1Bid,stimulus1Loaded,stimulus2,stimulus2Bid,stimulus2Loaded,subjectID,trialDuration,trialEndTime,trialN,trialStartTime
2018-01-02 15:53:15,-1.74,4000,True,u,370.01,Hersheymilk_several,Hersheymilk_several,8.53,True,starburst,6.79,True,MDMMT00002,370.01,634.685,0,264.675
2018-01-02 15:53:15,-3.86,4000,True,i,0.235,PayDay,MilkyWay,8.46,False,PayDay,4.6,False,MDMMT00002,0.235,1142.49,1,1142.255
2018-01-02 15:53:15,0.83,4000,True,u,2.69,SourSkittles,SourSkittles,3.07,False,FamousAmos_small,3.9,False,MDMMT00002,2.69,1654.485,2,1651.795
2018-01-02 15:53:15,0.62,4000,False,NaN,4004.93,NaN,Riprolls,3.06,True,AnimalCrackers,3.68,True,MDMMT00002,4004.93,6164.155,3,2159.225
2018-01-02 15:53:15,0.59,4000,False,NaN,4005.29,NaN,ChipsAhoy_small,3.09,True,AnimalCrackers,3.68,True,MDMMT00002,4005.29,10674.85,4,6669.56
2018-01-02 15:53:15,-0.17,4000,False,NaN,4004.535,NaN,TootsieRolls,8.73,True,FlamingCheetos,8.56,True,MDMMT00002,4004.535,15184.835,5,11180.3
2018-01-02 15:53:15,0.92,4000,False,NaN,4428.915,NaN,AnimalCrackers,3.68,True,PayDay,4.6,True,MDMMT00002,4428.915,20114.445,6,15685.53
2018-01-02 15:53:15,0.34,4000,False,NaN,4880.835,NaN,Cheese_PeanutButterCrackers,0.45,True,Toberlorone,0.79,True,MDMMT00002,4880.835,26114.34,7,21233.505
2018-01-02 15:53:15,1.27,4000,False,NaN,4879.665,NaN,Granolabar,4.82,True,Oreos,6.09,True,MDMMT00002,4879.665,32116.46,8,27236.795
2018-01-02 15:53:15,-0.39,4000,False,NaN,4943.885,NaN,MilkyWay,8.46,True,PeanutMMs,8.07,True,MDMMT00002,4943.885,38182.94,9,33239.055
2018-01-02 15:53:15,-3.76,4000,False,NaN,5094.72,NaN,FamousAmos_small,3.9,True,BabyRuth,0.14,True,MDMMT00002,5094.72,44288.87,10,39194.15
2018-01-02 15:53:15,3.83,4000,False,NaN,5196.465,NaN,Ruffles,0.7,True,RiceKrispyTreat_small,4.53,True,MDMMT00002,5196.465,50346.495,11,45150.03
2018-01-02 15:53:15,-0.41,4000,False,NaN,5362.41,NaN,Crunch,7.51,True,Fritos,7.1,True,MDMMT00002,5362.41,56481.92,12,51119.51
2018-01-02 15:53:15,-2.58,4000,False,NaN,5009.8,NaN,FigNewton_small,5.67,True,ChipsAhoy_small,3.09,True,MDMMT00002,5009.8,62227.845,13,57218.045
2018-01-02 15:53:15,1.53,4000,False,NaN,4004.915,NaN,Twix,7.03,True,FlamingCheetos,8.56,True,MDMMT00002,4004.915,66733.85,14,62728.935
2018-01-02 15:53:15,0.11,4000,False,NaN,4005.26,NaN,Goldfish,6.68,True,starburst,6.79,True,MDMMT00002,4005.26,71244.415,15,67239.155
2018-01-02 15:53:15,-0.48,4000,True,u,1132.685,Crunch,Crunch,7.51,True,Twix,7.03,True,MDMMT00002,1132.685,72881.805,16,71749.12
2018-01-02 15:53:15,-0.97,4000,True,i,146.33,FigNewton_small,Laysclassic,6.64,True,FigNewton_small,5.67,True,MDMMT00002,146.33,73534.585,17,73388.255
2018-01-02 15:53:15,0.51,4000,True,u,115.41,Hersheykisses,Hersheykisses,4.14,True,Almondjoy,4.65,True,MDMMT00002,115.41,74153.385,18,74037.975
2018-01-02 15:53:15,0.03,4000,True,u,95.925,PopTartsStrawberry,PopTartsStrawberry,7.67,True,Cheetos,7.7,True,MDMMT00002,95.925,74753.51,19,74657.585
2018-01-02 15:53:15,0.0,4000,True,i,119.255,Ghiradelli_milk_Almonds,Whatchamacallit,2.76,True,Ghiradelli_milk_Almonds,2.76,True,MDMMT00002,119.255,75381.505,20,75262.25
2018-01-02 15:53:15,1.25,4000,True,u,74.75,Cheezits,Cheezits,5.06,True,CheesyDoritos,6.31,True,MDMMT00002,74.75,75961.44,21,75886.69
2018-01-02 15:53:15,-5.5,4000,True,i,29.17,MrGoodbar,Milano,5.87,True,MrGoodbar,0.37,True,MDMMT00002,29.17,76497.265,22,76468.095
2018-01-02 15:53:15,-2.31,4000,True,i,110.625,Cheese_PeanutButterCrackers,Whatchamacallit,2.76,True,Cheese_PeanutButterCrackers,0.45,True,MDMMT00002,110.625,77113.42,23,77002.795
2018-01-02 15:53:15,-0.31,4000,True,i,64.51,Butterfinger,Ghiradelli_milk,9.71,True,Butterfinger,9.4,True,MDMMT00002,64.51,77681.23,24,77616.72
2018-01-02 15:53:15,-3.68,4000,True,i,67.645,Reeses,Keeblerfudgestripes,4.07,True,Reeses,0.39,True,MDMMT00002,67.645,78269.175,25,78201.53
2018-01-02 15:53:15,-1.22,4000,True,i,50.165,Almondjoy,Milano,5.87,True,Almondjoy,4.65,True,MDMMT00002,50.165,78841.33,26,78791.165
2018-01-02 15:53:15,0.21,4000,True,i,27.74,Laysclassic,Milkduds,6.43,True,Laysclassic,6.64,True,MDMMT00002,27.74,79377.135,27,79349.395
2018-01-02 15:53:15,-0.25,4000,True,u,53.9,Reeses,Reeses,0.39,True,BabyRuth,0.14,True,MDMMT00002,53.9,79937.24,28,79883.34
2018-01-02 15:53:15,3.6,4000,True,i,16.025,PopTartsStrawberry,Keeblerfudgestripes,4.07,True,PopTartsStrawberry,7.67,True,MDMMT00002,16.025,80485.08,29,80469.055
2018-01-02 15:53:15,-0.28,4000,True,i,73.945,RiceKrispyTreat_small,RitzBitz2,4.81,True,RiceKrispyTreat_small,4.53,True,MDMMT00002,73.945,81065.04,30,80991.095
2018-01-02 15:53:15,-1.15,4000,True,i,71.32,FlamingCheetos,Ghiradelli_milk,9.71,True,FlamingCheetos,8.56,True,MDMMT00002,71.32,81641.06,31,81569.74
2018-01-02 15:53:15,-2.06,4000,True,i,76.465,Ruffles,Ghiradelli_milk_Almonds,2.76,True,Ruffles,0.7,True,MDMMT00002,76.465,82228.995,32,82152.53
2018-01-02 15:53:15,-2.09,4000,True,i,63.305,PopTartsStrawberry,Laffytaffyred_one,9.76,True,PopTartsStrawberry,7.67,True,MDMMT00002,63.305,82801.51,33,82738.205
2018-01-02 15:53:15,3.42,4000,True,i,89.0,Fritos,AnimalCrackers,3.68,True,Fritos,7.1,True,MDMMT00002,89.0,83409.185,34,83320.185
2018-01-02 15:53:15,0.89,4000,True,i,60.605,Sourpatch,ChipsAhoy_small,3.09,True,Sourpatch,3.98,True,MDMMT00002,60.605,83972.94,35,83912.335
2018-01-02 15:53:15,4.48,4000,True,i,63.565,Ghiradelli_milk,Skittles,5.23,True,Ghiradelli_milk,9.71,True,MDMMT00002,63.565,84553.07,36,84489.505
2018-01-02 15:53:15,0.22,4000,True,u,5.075,starburst,starburst,6.79,True,3Musketeers,7.01,False,MDMMT00002,5.075,85076.865,37,85071.79
2018-01-02 15:53:15,0.55,4000,True,u,107.955,Ruffles,Ruffles,0.7,True,Slimjim,1.25,True,MDMMT00002,107.955,85689.06,38,85581.105
2018-01-02 15:53:15,-2.15,4000,True,i,0.239999999991,Reeses,WheatThins,2.54,False,Reeses,0.39,True,MDMMT00002,0.239999999991,86192.875,39,86192.635
2018-01-02 15:53:15,-0.48,4000,True,u,54.505,starburst,starburst,6.79,True,CheesyDoritos,6.31,True,MDMMT00002,54.505,86757.01,40,86702.505
2018-01-02 15:53:15,2.3,4000,True,i,51.915,Cheezits,Ghiradelli_milk_Almonds,2.76,True,Cheezits,5.06,True,MDMMT00002,51.915,87312.91,41,87260.995
2018-01-02 15:53:15,0.17,4000,True,u,3.55,Funyuns_small,Funyuns_small,8.56,False,TootsieRolls,8.73,True,MDMMT00002,3.55,87844.845,42,87841.295
2018-01-02 15:53:15,-0.14,4000,True,i,28.97,Snickers,BabyRuth,0.14,True,Snickers,0.0,True,MDMMT00002,28.97,88380.84,43,88351.87
2018-01-02 15:53:15,0.07,4000,True,i,73.32,PayDay,RiceKrispyTreat_small,4.53,True,PayDay,4.6,True,MDMMT00002,73.32,89000.695,44,88927.375
2018-01-02 15:53:15,-2.69,4000,True,u,22.985,Riprolls,Riprolls,3.06,True,MrGoodbar,0.37,True,MDMMT00002,22.985,89532.72,45,89509.735
2018-01-02 15:53:15,0.11,4000,True,u,7.62,Milano,Milano,5.87,True,100grand_small,5.98,False,MDMMT00002,7.62,90100.635,46,90093.015
2018-01-02 15:53:15,0.19,4000,True,i,36.605,Chocolate_mm,CheesyDoritos,6.31,True,Chocolate_mm,6.5,True,MDMMT00002,36.605,90640.765,47,90604.16
2018-01-02 15:53:15,-5.52,4000,True,u,29.82,CheesyDoritos,CheesyDoritos,6.31,True,Toberlorone,0.79,True,MDMMT00002,29.82,91224.81,48,91194.99
2018-01-02 15:53:15,0.46,4000,True,u,117.925,Toberlorone,Toberlorone,0.79,True,Slimjim,1.25,True,MDMMT00002,117.925,91894.78,49,91776.855
2018-01-02 15:53:15,-0.83,4000,True,u,55.74,RitzBitz2,RitzBitz2,4.81,True,Sourpatch,3.98,True,MDMMT00002,55.74,92455.595,50,92399.855
2018-01-02 15:53:15,-3.68,4000,True,u,83.085,AnimalCrackers,AnimalCrackers,3.68,True,Snickers,0.0,True,MDMMT00002,83.085,93062.695,51,92979.61
2018-01-02 15:53:15,0.03,4000,True,i,32.83,ChipsAhoy_small,Riprolls,3.06,True,ChipsAhoy_small,3.09,True,MDMMT00002,32.83,93604.665,52,93571.835
2018-01-02 15:53:15,-2.71,4000,True,i,234.275,KitKat_small,RitzBitz2,4.81,True,KitKat_small,2.1,True,MDMMT00002,234.275,94377.595,53,94143.32
2018-01-02 15:53:15,-0.55,4000,True,i,205.205,Butterfinger,Nutterbutter,9.95,True,Butterfinger,9.4,True,MDMMT00002,205.205,95086.7,54,94881.495
2018-01-02 15:53:15,2.92,4000,True,i,112.225,Ghiradelli_milk,starburst,6.79,True,Ghiradelli_milk,9.71,True,MDMMT00002,112.225,95707.61,55,95595.385
2018-01-02 15:53:15,-5.7,4000,True,i,57.565,Snickers,Jollyranchergreen,5.7,True,Snickers,0.0,True,MDMMT00002,57.565,96269.355,56,96211.79
2018-01-02 15:53:15,0.17,4000,True,u,10.14,FamousAmos_small,FamousAmos_small,3.9,True,Keeblerfudgestripes,4.07,True,MDMMT00002,10.14,96794.54,57,96784.4
2018-01-02 15:53:15,0.8,4000,True,u,202.495,PringlesRed,PringlesRed,5.04,True,Doritosranch,5.84,True,MDMMT00002,202.495,97501.53,58,97299.035
2018-01-02 15:53:15,-2.28,4000,True,u,31.545,Granolabar,Granolabar,4.82,True,WheatThins,2.54,True,MDMMT00002,31.545,98041.465,59,98009.92
2018-01-02 15:53:15,-0.76,4000,True,u,70.355,MilkyWay,MilkyWay,8.46,True,Cheetos,7.7,True,MDMMT00002,70.355,98657.485,60,98587.13
2018-01-02 15:53:15,0.39,4000,True,i,324.57,Jollyranchergreen,Dots_one,5.31,True,Jollyranchergreen,5.7,True,MDMMT00002,324.57,99485.81,61,99161.24
2018-01-02 15:53:15,-0.12,4000,True,u,17.11,Milkduds,Milkduds,6.43,True,CheesyDoritos,6.31,True,MDMMT00002,17.11,100011.42,62,99994.31
2018-01-02 15:53:15,-1.61,4000,True,i,187.355,Oreos,Cheetos,7.7,True,Oreos,6.09,True,MDMMT00002,187.355,100702.385,63,100515.03
2018-01-02 15:53:15,-3.73,4000,True,i,309.27,Riprolls,starburst,6.79,True,Riprolls,3.06,True,MDMMT00002,309.27,101520.71,64,101211.44
2018-01-02 15:53:15,0.02,4000,True,i,336.135,Reeses,MrGoodbar,0.37,True,Reeses,0.39,True,MDMMT00002,336.135,102361.94,65,102025.805
2018-01-02 15:53:15,-2.62,4000,True,u,93.73,Ghiradelli_milk_Almonds,Ghiradelli_milk_Almonds,2.76,True,BabyRuth,0.14,True,MDMMT00002,93.73,102959.335,66,102865.605
2018-01-02 15:53:16,2.15,4000,True,i,241.205,MilkyWay,CheesyDoritos,6.31,True,MilkyWay,8.46,True,MDMMT00002,241.205,103707.26,67,103466.055
2018-01-02 15:53:16,-5.59,4000,True,i,16.38,Reeses,100grand_small,5.98,True,Reeses,0.39,True,MDMMT00002,16.38,104227.23,68,104210.85
2018-01-02 15:53:16,0.33,4000,True,u,101.575,MrGoodbar,MrGoodbar,0.37,True,Ruffles,0.7,True,MDMMT00002,101.575,104835.205,69,104733.63
2018-01-02 15:53:16,-0.46,4000,True,i,49.155,Laysclassic,Fritos,7.1,True,Laysclassic,6.64,True,MDMMT00002,49.155,105393.105,70,105343.95
2018-01-02 15:53:16,2.05,4000,True,u,279.57,Goldfish,Goldfish,6.68,True,TootsieRolls,8.73,True,MDMMT00002,279.57,106209.15,71,105929.58
2018-01-02 15:53:16,0.89,4000,True,u,291.795,PopTartsStrawberry,PopTartsStrawberry,7.67,True,FlamingCheetos,8.56,True,MDMMT00002,291.795,107009.0,72,106717.205
2018-01-02 15:53:16,0.79,4000,True,u,459.85,Snickers,Snickers,0.0,True,Toberlorone,0.79,True,MDMMT00002,459.85,107972.92,73,107513.07
2018-01-02 15:53:16,-0.61,4000,True,u,268.315,FigNewton_small,FigNewton_small,5.67,True,Cheezits,5.06,True,MDMMT00002,268.315,108749.03,74,108480.715
2018-01-02 15:53:16,3.61,4000,True,u,71.4,MrGoodbar,MrGoodbar,0.37,True,Sourpatch,3.98,True,MDMMT00002,71.4,109328.975,75,109257.575
2018-01-02 15:53:16,4.28,4000,True,u,80.95,FigNewton_small,FigNewton_small,5.67,True,Nutterbutter,9.95,True,MDMMT00002,80.95,109914.02,76,109833.07
2018-01-02 15:53:16,1.25,4000,True,u,322.595,MilkyWay,MilkyWay,8.46,True,Ghiradelli_milk,9.71,True,MDMMT00002,322.595,110740.91,77,110418.315
2018-01-02 15:53:16,1.64,4000,False,NaN,4003.715,NaN,Milano,5.87,True,Crunch,7.51,True,MDMMT00002,4003.715,115248.635,78,111244.92
2018-01-02 15:53:16,-1.51,4000,True,i,987.745,Slimjim,Whatchamacallit,2.76,True,Slimjim,1.25,True,MDMMT00002,987.745,116738.555,79,115750.81
2018-01-02 15:53:16,2.92,4000,True,i,934.225,Nutterbutter,Twix,7.03,True,Nutterbutter,9.95,True,MDMMT00002,934.225,118178.03,80,117243.805
2018-01-02 15:53:16,0.36,4000,True,i,1562.515,FigNewton_small,Dots_one,5.31,True,FigNewton_small,5.67,True,MDMMT00002,1562.515,120246.08,81,118683.565
2018-01-02 15:53:16,1.44,4000,True,u,1795.505,ChipsAhoy_small,ChipsAhoy_small,3.09,True,RiceKrispyTreat_small,4.53,True,MDMMT00002,1795.505,122549.99,82,120754.485
2018-01-02 15:53:16,0.28,4000,True,i,255.73,100grand_small,Jollyranchergreen,5.7,True,100grand_small,5.98,True,MDMMT00002,255.73,123309.83,83,123054.1
2018-01-02 15:53:16,-2.64,4000,True,i,719.685,Cheese_PeanutButterCrackers,ChipsAhoy_small,3.09,True,Cheese_PeanutButterCrackers,0.45,True,MDMMT00002,719.685,124537.9,84,123818.215
2018-01-02 15:53:16,-0.31,4000,True,i,207.395,3Musketeers,TeddyGrahamschocolate,7.32,True,3Musketeers,7.01,True,MDMMT00002,207.395,125253.9,85,125046.505
2018-01-02 15:53:16,2.75,4000,True,u,202.68,3Musketeers,3Musketeers,7.01,True,Laffytaffyred_one,9.76,True,MDMMT00002,202.68,125961.885,86,125759.205
2018-01-02 15:53:16,-1.03,4000,True,i,200.38,TootsieRolls,Laffytaffyred_one,9.76,True,TootsieRolls,8.73,True,MDMMT00002,200.38,126665.84,87,126465.46
2018-01-02 15:53:16,0.79,4000,True,u,1084.85,PopTartsStrawberry,PopTartsStrawberry,7.67,True,MilkyWay,8.46,True,MDMMT00002,1084.85,128257.85,88,127173.0
2018-01-02 15:53:16,0.06,4000,True,i,1075.685,Lollipopred,Oreos,6.09,True,Lollipopred,6.15,True,MDMMT00002,1075.685,129837.655,89,128761.97
2018-01-02 15:53:16,-0.22,4000,True,i,80.965,Granolabar,PringlesRed,5.04,True,Granolabar,4.82,True,MDMMT00002,80.965,130422.145,90,130341.18
2018-01-02 15:53:16,-1.2,4000,True,i,1856.47,Skittles,Milkduds,6.43,True,Skittles,5.23,True,MDMMT00002,1856.47,132786.78,91,130930.31
2018-01-02 15:53:16,-0.19,4000,True,i,827.525,Laffytaffyred_one,Nutterbutter,9.95,True,Laffytaffyred_one,9.76,True,MDMMT00002,827.525,134121.375,92,133293.85
2018-01-02 15:53:16,-5.64,4000,True,i,51.3,Cheese_PeanutButterCrackers,Oreos,6.09,True,Cheese_PeanutButterCrackers,0.45,True,MDMMT00002,51.3,134677.495,93,134626.195
2018-01-02 15:53:16,3.69,4000,True,i,197.52,TootsieRolls,PringlesRed,5.04,True,TootsieRolls,8.73,True,MDMMT00002,197.52,135385.41,94,135187.89
2018-01-02 15:53:16,-4.1,4000,True,i,14.455,WheatThins,Laysclassic,6.64,True,WheatThins,2.54,True,MDMMT00002,14.455,135905.43,95,135890.975
2018-01-02 15:53:16,0.44,4000,True,u,161.83,KitKat_small,KitKat_small,2.1,True,WheatThins,2.54,True,MDMMT00002,161.83,136573.41,96,136411.58
2018-01-02 15:53:16,-0.29,4000,True,u,607.165,TeddyGrahamschocolate,TeddyGrahamschocolate,7.32,True,Twix,7.03,True,MDMMT00002,607.165,137689.435,97,137082.27
2018-01-02 15:53:16,-3.56,4000,True,u,693.065,Cheetos,Cheetos,7.7,True,Hersheykisses,4.14,True,MDMMT00002,693.065,138891.41,98,138198.345
2018-01-02 15:53:16,-0.28,4000,True,u,738.48,Lollipopred,Lollipopred,6.15,True,Milano,5.87,True,MDMMT00002,738.48,140134.32,99,139395.84
2018-01-02 15:53:16,5.7,4000,True,i,637.795,Doritosranch,BabyRuth,0.14,True,Doritosranch,5.84,True,MDMMT00002,637.795,141278.305,100,140640.51
2018-01-02 15:53:16,3.74,4000,True,i,28.235,FlamingCheetos,Granolabar,4.82,True,FlamingCheetos,8.56,True,MDMMT00002,28.235,141812.0,101,141783.765
2018-01-02 15:53:16,-0.36,4000,False,NaN,4001.725,NaN,Laffytaffyred_one,9.76,True,Butterfinger,9.4,True,MDMMT00002,4001.725,146364.315,102,142362.59
2018-01-02 15:53:16,-1.4,4000,False,NaN,4003.98,NaN,Fritos,7.1,True,Jollyranchergreen,5.7,True,MDMMT00002,4003.98,150874.155,103,146870.175
2018-01-02 15:53:16,-1.01,4000,False,NaN,4003.005,NaN,Keeblerfudgestripes,4.07,True,Riprolls,3.06,True,MDMMT00002,4003.005,155382.76,104,151379.755
2018-01-02 15:53:16,-1.55,4000,False,NaN,4003.765,NaN,Funyuns_small,8.56,True,3Musketeers,7.01,True,MDMMT00002,4003.765,159892.175,105,155888.41
2018-01-02 15:53:16,-2.17,4000,False,NaN,4005.315,NaN,Skittles,5.23,True,Riprolls,3.06,True,MDMMT00002,4005.315,164403.285,106,160397.97
2018-01-02 15:53:16,-1.11,4000,False,NaN,4005.43,NaN,Lollipopred,6.15,True,PringlesRed,5.04,True,MDMMT00002,4005.43,168913.24,107,164907.81
2018-01-02 15:53:16,1.07,4000,False,NaN,4005.43,NaN,SourSkittles,3.07,True,Hersheykisses,4.14,True,MDMMT00002,4005.43,173424.365,108,169418.935
2018-01-02 15:53:16,-0.58,4000,True,i,125.64,Milkduds,3Musketeers,7.01,True,Milkduds,6.43,True,MDMMT00002,125.64,174056.04,109,173930.4
2018-01-02 15:53:16,2.2,4000,True,u,175.41,Crunch,Crunch,7.51,True,Ghiradelli_milk,9.71,True,MDMMT00002,175.41,174735.88,110,174560.47
2018-01-02 15:53:16,0.19,4000,True,u,269.91,PringlesRed,PringlesRed,5.04,True,Skittles,5.23,True,MDMMT00002,269.91,175513.995,111,175244.085
2018-01-02 15:53:16,-3.53,4000,True,u,274.575,Crunch,Crunch,7.51,True,Sourpatch,3.98,True,MDMMT00002,274.575,176294.92,112,176020.345
2018-01-02 15:53:16,3.94,4000,True,i,1144.75,Twix,ChipsAhoy_small,3.09,True,Twix,7.03,True,MDMMT00002,1144.75,177944.975,113,176800.225
2018-01-02 15:53:16,1.73,4000,True,i,195.085,KitKat_small,MrGoodbar,0.37,True,KitKat_small,2.1,True,MDMMT00002,195.085,178644.86,114,178449.775
2018-01-02 15:53:16,-3.88,4000,True,i,213.8,Almondjoy,Hersheymilk_several,8.53,True,Almondjoy,4.65,True,MDMMT00002,213.8,179366.83,115,179153.03
2018-01-02 15:53:16,-1.33,4000,True,u,631.84,Butterfinger,Butterfinger,9.4,True,PeanutMMs,8.07,True,MDMMT00002,631.84,180502.86,116,179871.02
2018-01-02 15:53:16,-3.42,4000,True,i,411.825,FamousAmos_small,TeddyGrahamschocolate,7.32,True,FamousAmos_small,3.9,True,MDMMT00002,411.825,181423.275,117,181011.45
2018-01-02 15:53:16,1.19,4000,True,u,760.895,Dots_one,Dots_one,5.31,True,Chocolate_mm,6.5,True,MDMMT00002,760.895,182692.765,118,181931.87
2018-01-02 15:53:16,1.39,4000,True,u,817.14,Goldfish,Goldfish,6.68,True,PeanutMMs,8.07,True,MDMMT00002,817.14,184018.725,119,183201.585
2018-01-02 15:53:16,1.17,4000,True,i,3837.775,Jollyranchergreen,RiceKrispyTreat_small,4.53,True,Jollyranchergreen,5.7,True,MDMMT00002,3837.775,188365.515,120,184527.74
2018-01-02 15:53:16,-3.75,4000,True,i,2577.2,RitzBitz2,Funyuns_small,8.56,True,RitzBitz2,4.81,True,MDMMT00002,2577.2,191451.355,121,188874.155
2018-01-02 15:53:16,0.16,4000,False,NaN,4004.01,NaN,Almondjoy,4.65,True,RitzBitz2,4.81,True,MDMMT00002,4004.01,195964.545,122,191960.535
2018-01-02 15:53:16,2.1,4000,True,i,383.775,Hersheymilk_several,Milkduds,6.43,True,Hersheymilk_several,8.53,True,MDMMT00002,383.775,196853.15,123,196469.375
2018-01-02 15:53:16,3.69,4000,True,i,884.36,Hersheykisses,Cheese_PeanutButterCrackers,0.45,True,Hersheykisses,4.14,True,MDMMT00002,884.36,198241.145,124,197356.785
2018-01-02 15:53:16,-1.39,4000,True,u,1035.585,Nutterbutter,Nutterbutter,9.95,True,Funyuns_small,8.56,True,MDMMT00002,1035.585,199780.915,125,198745.33
2018-01-02 15:53:16,0.61,4000,True,u,195.525,SourSkittles,SourSkittles,3.07,True,AnimalCrackers,3.68,True,MDMMT00002,195.525,200484.835,126,200289.31
2018-01-02 15:53:16,0.01,4000,True,i,139.58,SourSkittles,Riprolls,3.06,True,SourSkittles,3.07,True,MDMMT00002,139.58,201128.885,127,200989.305
2018-01-02 15:53:16,-0.41,4000,True,i,907.11,Granolabar,Skittles,5.23,True,Granolabar,4.82,True,MDMMT00002,907.11,202544.915,128,201637.805
2018-01-02 15:53:16,1.24,4000,True,u,399.065,PayDay,PayDay,4.6,True,Doritosranch,5.84,True,MDMMT00002,399.065,203452.85,129,203053.785
2018-01-02 15:53:16,-2.7,4000,True,i,68.235,MrsFields,Butterfinger,9.4,True,MrsFields,6.7,True,MDMMT00002,68.235,204024.53,130,203956.295
2018-01-02 15:53:16,0.66,4000,True,i,291.755,Ghiradelli_milk_Almonds,KitKat_small,2.1,True,Ghiradelli_milk_Almonds,2.76,True,MDMMT00002,291.755,204829.71,131,204537.955
2018-01-02 15:53:17,0.27,4000,True,i,2152.47,Dots_one,PringlesRed,5.04,True,Dots_one,5.31,True,MDMMT00002,2152.47,207490.68,132,205338.21
2018-01-02 15:53:17,0.17,4000,True,u,825.54,Cheezits,Cheezits,5.06,True,Skittles,5.23,True,MDMMT00002,825.54,208819.635,133,207994.095
2018-01-02 15:53:17,2.76,4000,True,i,583.345,Whatchamacallit,Snickers,0.0,True,Whatchamacallit,2.76,True,MDMMT00002,583.345,209907.5,134,209324.155
2018-01-02 15:53:17,-2.06,4000,True,i,467.21,Chocolate_mm,Funyuns_small,8.56,True,Chocolate_mm,6.5,True,MDMMT00002,467.21,210883.41,135,210416.2
2018-01-02 15:53:17,-0.37,4000,True,i,125.585,Snickers,MrGoodbar,0.37,True,Snickers,0.0,True,MDMMT00002,125.585,211515.26,136,211389.675
2018-01-02 15:53:17,-0.75,4000,True,i,1142.88,FamousAmos_small,Almondjoy,4.65,True,FamousAmos_small,3.9,True,MDMMT00002,1142.88,213164.44,137,212021.56
2018-01-02 15:53:17,0.31,4000,True,i,3181.01,3Musketeers,MrsFields,6.7,True,3Musketeers,7.01,True,MDMMT00002,3181.01,216854.145,138,213673.135
2018-01-02 15:53:17,-1.23,4000,True,i,584.55,Hersheymilk_several,Laffytaffyred_one,9.76,True,Hersheymilk_several,8.53,True,MDMMT00002,584.55,217946.23,139,217361.68
2018-01-02 15:53:17,1.92,4000,True,i,81.13,FlamingCheetos,Laysclassic,6.64,True,FlamingCheetos,8.56,True,MDMMT00002,81.13,218531.71,140,218450.58
2018-01-02 15:53:17,0.48,4000,True,i,2541.105,Lollipopred,FigNewton_small,5.67,True,Lollipopred,6.15,True,MDMMT00002,2541.105,221578.07,141,219036.965
2018-01-02 15:53:17,0.08,4000,True,i,1189.935,Sourpatch,FamousAmos_small,3.9,True,Sourpatch,3.98,True,MDMMT00002,1189.935,223273.745,142,222083.81
2018-01-02 15:53:17,3.94,4000,False,NaN,4001.545,NaN,SourSkittles,3.07,True,3Musketeers,7.01,True,MDMMT00002,4001.545,227780.31,143,223778.765
2018-01-02 15:53:17,-1.97,4000,True,u,96.06,Keeblerfudgestripes,Keeblerfudgestripes,4.07,True,KitKat_small,2.1,True,MDMMT00002,96.06,228381.7,144,228285.64
2018-01-02 15:53:17,0.53,4000,False,NaN,4001.765,NaN,Chocolate_mm,6.5,True,Twix,7.03,True,MDMMT00002,4001.765,232892.455,145,228890.69
2018-01-02 15:53:17,0.07,4000,True,i,18.285,Fritos,Twix,7.03,True,Fritos,7.1,True,MDMMT00002,18.285,233415.53,146,233397.245
2018-01-02 15:53:17,-2.08,4000,True,i,119.075,TeddyGrahamschocolate,Butterfinger,9.4,True,TeddyGrahamschocolate,7.32,True,MDMMT00002,119.075,234089.635,147,233970.56
2018-01-02 15:53:17,0.02,4000,True,i,2846.965,MrsFields,Goldfish,6.68,True,MrsFields,6.7,True,MDMMT00002,2846.965,237445.325,148,234598.36
2018-01-02 15:53:17,4.34,4000,True,i,67.505,Butterfinger,Cheezits,5.06,True,Butterfinger,9.4,True,MDMMT00002,67.505,238021.265,149,237953.76
2018-01-02 15:53:17,-5.45,4000,True,i,462.97,Ruffles,Lollipopred,6.15,True,Ruffles,0.7,True,MDMMT00002,462.97,238993.515,150,238530.545
2018-01-02 15:53:17,1.92,4000,True,i,3636.945,PeanutMMs,Lollipopred,6.15,True,PeanutMMs,8.07,True,MDMMT00002,3636.945,243137.12,151,239500.175
2018-01-02 15:53:17,0.49,4000,True,i,3060.375,Funyuns_small,PeanutMMs,8.07,True,Funyuns_small,8.56,True,MDMMT00002,3060.375,246706.175,152,243645.8
2018-01-02 15:53:17,3.94,4000,True,i,412.61,MrsFields,Ghiradelli_milk_Almonds,2.76,True,MrsFields,6.7,True,MDMMT00002,412.61,247627.125,153,247214.515
2018-01-02 15:53:17,0.39,4000,True,i,23.135,Reeses,Snickers,0.0,True,Reeses,0.39,True,MDMMT00002,23.135,248159.09,154,248135.955
2018-01-02 15:53:17,-0.25,4000,True,i,343.545,Cheese_PeanutButterCrackers,Ruffles,0.7,True,Cheese_PeanutButterCrackers,0.45,True,MDMMT00002,343.545,249049.985,155,248706.44
2018-01-02 15:53:17,-0.53,4000,True,i,22.505,Keeblerfudgestripes,PayDay,4.6,True,Keeblerfudgestripes,4.07,True,MDMMT00002,22.505,249576.96,156,249554.455
2018-01-02 15:53:17,0.22,4000,True,i,377.42,Ghiradelli_milk_Almonds,WheatThins,2.54,True,Ghiradelli_milk_Almonds,2.76,True,MDMMT00002,377.42,250460.93,157,250083.51
2018-01-02 15:53:17,-0.24,4000,True,i,2588.19,Granolabar,Cheezits,5.06,True,Granolabar,4.82,True,MDMMT00002,2588.19,253552.88,158,250964.69
2018-01-02 15:53:17,-1.76,4000,True,i,432.105,MrsFields,MilkyWay,8.46,True,MrsFields,6.7,True,MDMMT00002,432.105,254489.835,159,254057.73
2018-01-02 15:53:17,-0.07,4000,True,i,538.115,Keeblerfudgestripes,Hersheykisses,4.14,True,Keeblerfudgestripes,4.07,True,MDMMT00002,538.115,255536.7,160,254998.585
2018-01-02 15:53:17,0.83,4000,False,NaN,4001.53,NaN,Cheetos,7.7,True,Hersheymilk_several,8.53,True,MDMMT00002,4001.53,260042.185,161,256040.655
2018-01-02 15:53:17,-0.24,4000,True,i,496.085,Ghiradelli_milk,Nutterbutter,9.95,True,Ghiradelli_milk,9.71,True,MDMMT00002,496.085,261039.415,162,260543.33
2018-01-02 15:53:17,0.2,4000,False,NaN,4003.675,NaN,Chocolate_mm,6.5,True,MrsFields,6.7,True,MDMMT00002,4003.675,265548.175,163,261544.5
2018-01-02 15:53:17,1.48,4000,False,NaN,4000.67,NaN,Doritosranch,5.84,True,TeddyGrahamschocolate,7.32,True,MDMMT00002,4000.67,270054.69,164,266054.02
2018-01-02 15:53:17,-1.03,4000,False,NaN,4001.335,NaN,TootsieRolls,8.73,True,Cheetos,7.7,True,MDMMT00002,4001.335,274561.93,165,270560.595
2018-01-02 15:53:17,-2.28,4000,False,NaN,4004.895,NaN,PringlesRed,5.04,True,Whatchamacallit,2.76,True,MDMMT00002,4004.895,279071.75,166,275066.855
2018-01-02 15:53:17,-1.63,4000,False,NaN,4001.135,NaN,TootsieRolls,8.73,True,Fritos,7.1,True,MDMMT00002,4001.135,283575.86,167,279574.725
2018-01-02 15:53:17,1.17,4000,False,NaN,4005.365,NaN,RitzBitz2,4.81,True,100grand_small,5.98,True,MDMMT00002,4005.365,288086.93,168,284081.565
2018-01-02 15:53:17,-0.25,4000,False,NaN,4005.38,NaN,Oreos,6.09,True,Doritosranch,5.84,True,MDMMT00002,4005.38,292597.465,169,288592.085
2018-01-02 15:53:17,-3.4,4000,False,NaN,4002.19,NaN,Almondjoy,4.65,True,Slimjim,1.25,True,MDMMT00002,4002.19,297104.78,170,293102.59
2018-01-02 15:53:17,5.18,4000,True,i,2580.92,Milkduds,Slimjim,1.25,True,Milkduds,6.43,True,MDMMT00002,2580.92,300191.865,171,297610.945
2018-01-02 15:53:17,1.6,4000,True,i,582.72,Hersheykisses,WheatThins,2.54,True,Hersheykisses,4.14,True,MDMMT00002,582.72,301283.735,172,300701.015
2018-01-02 15:53:17,0.78,4000,True,i,1368.335,Oreos,Dots_one,5.31,True,Oreos,6.09,True,MDMMT00002,1368.335,303155.72,173,301787.385
2018-01-02 15:53:17,-2.25,4000,True,i,303.91,Cheetos,Nutterbutter,9.95,True,Cheetos,7.7,True,MDMMT00002,303.91,303963.645,174,303659.735
2018-01-02 15:53:17,-0.17,4000,True,i,206.815,100grand_small,Lollipopred,6.15,True,100grand_small,5.98,True,MDMMT00002,206.815,304677.63,175,304470.815
2018-01-02 15:53:17,0.14,4000,True,i,673.28,Laysclassic,Chocolate_mm,6.5,True,Laysclassic,6.64,True,MDMMT00002,673.28,305857.585,176,305184.305
2018-01-02 15:53:17,-0.16,4000,True,i,891.305,Sourpatch,Hersheykisses,4.14,True,Sourpatch,3.98,True,MDMMT00002,891.305,307253.57,177,306362.265
2018-01-02 15:53:17,2.68,4000,True,i,1677.805,SourSkittles,Reeses,0.39,True,SourSkittles,3.07,True,MDMMT00002,1677.805,309437.5,178,307759.695
2018-01-02 15:53:17,-1.11,4000,True,i,353.64,BabyRuth,Slimjim,1.25,True,BabyRuth,0.14,True,MDMMT00002,353.64,310294.46,179,309940.82
2018-01-02 15:53:17,0.33,4000,True,u,934.485,CheesyDoritos,CheesyDoritos,6.31,True,Laysclassic,6.64,True,MDMMT00002,934.485,311734.415,180,310799.93
2018-01-02 15:53:17,0.75,4000,False,NaN,4005.33,NaN,Skittles,5.23,True,100grand_small,5.98,True,MDMMT00002,4005.33,316244.575,181,312239.245
2018-01-02 15:53:17,0.03,4000,False,NaN,4004.465,NaN,Hersheymilk_several,8.53,True,Funyuns_small,8.56,True,MDMMT00002,4004.465,320751.285,182,316746.82
2018-01-02 15:53:17,-0.64,4000,False,NaN,4005.46,NaN,TeddyGrahamschocolate,7.32,True,Goldfish,6.68,True,MDMMT00002,4005.46,325262.025,183,321256.565
2018-01-02 15:53:17,-0.81,4000,False,NaN,4001.63,NaN,Milano,5.87,True,Cheezits,5.06,True,MDMMT00002,4001.63,329769.42,184,325767.79
2018-01-02 15:53:17,0.66,4000,False,NaN,4000.26,NaN,KitKat_small,2.1,True,Whatchamacallit,2.76,True,MDMMT00002,4000.26,334275.23,185,330274.97
2018-01-02 15:53:17,4.4,4000,False,NaN,4002.37,NaN,KitKat_small,2.1,True,Chocolate_mm,6.5,True,MDMMT00002,4002.37,338783.325,186,334780.955
2018-01-02 15:53:17,0.21,4000,False,NaN,4005.45,NaN,PayDay,4.6,True,RitzBitz2,4.81,True,MDMMT00002,4005.45,343295.21,187,339289.76
2018-01-02 15:53:17,-2.98,4000,False,NaN,4005.415,NaN,AnimalCrackers,3.68,True,Ruffles,0.7,True,MDMMT00002,4005.415,347806.485,188,343801.07
2018-01-02 15:53:17,3.81,4000,False,NaN,4003.765,NaN,Toberlorone,0.79,True,PayDay,4.6,True,MDMMT00002,4003.765,352315.56,189,348311.795
2018-01-02 15:53:17,-1.75,4000,False,NaN,4005.34,NaN,WheatThins,2.54,True,Toberlorone,0.79,True,MDMMT00002,4005.34,356826.84,190,352821.5
2018-01-02 15:53:17,-3.11,4000,False,NaN,4005.495,NaN,FamousAmos_small,3.9,True,Toberlorone,0.79,True,MDMMT00002,4005.495,361338.195,191,357332.7
2018-01-02 15:53:17,-0.81,4000,False,NaN,4003.75,NaN,Crunch,7.51,True,MrsFields,6.7,True,MDMMT00002,4003.75,365846.75,192,361843.0
2018-01-02 15:53:17,-0.25,4000,False,NaN,4004.04,NaN,Goldfish,6.68,True,Milkduds,6.43,True,MDMMT00002,4004.04,370356.56,193,366352.52
2018-01-02 15:53:17,-0.14,4000,False,NaN,4005.39,NaN,Doritosranch,5.84,True,Jollyranchergreen,5.7,True,MDMMT00002,4005.39,374867.785,194,370862.395
2018-01-02 15:53:17,3.92,4000,False,NaN,4004.48,NaN,Whatchamacallit,2.76,True,Goldfish,6.68,True,MDMMT00002,4004.48,379377.995,195,375373.515
2018-01-02 15:53:17,0.12,4000,False,NaN,4005.375,NaN,RiceKrispyTreat_small,4.53,True,Almondjoy,4.65,True,MDMMT00002,4005.375,383889.275,196,379883.9
2018-01-02 15:53:18,-0.19,4000,False,NaN,4005.38,NaN,Crunch,7.51,True,TeddyGrahamschocolate,7.32,True,MDMMT00002,4005.38,388400.435,197,384395.055
2018-01-02 15:53:18,-4.45,4000,False,NaN,4005.185,NaN,Laffytaffyred_one,9.76,True,Dots_one,5.31,True,MDMMT00002,4005.185,392911.075,198,388905.89
2018-01-02 15:53:18,3.54,4000,False,NaN,4001.475,NaN,RiceKrispyTreat_small,4.53,True,PeanutMMs,8.07,True,MDMMT00002,4001.475,397418.345,199,393416.87
2018-01-02 15:53:18,1.69,4000,False,NaN,4005.375,NaN,100grand_small,5.98,True,PopTartsStrawberry,7.67,True,MDMMT00002,4005.375,401930.055,200,397924.68
2018-01-02 15:53:18,0.31,4000,False,NaN,4001.265,NaN,starburst,6.79,True,Fritos,7.1,True,MDMMT00002,4001.265,406436.77,201,402435.505
2018-01-02 15:53:18,-2.24,4000,False,NaN,4005.42,NaN,Dots_one,5.31,True,SourSkittles,3.07,True,MDMMT00002,4005.42,410947.975,202,406942.555
2018-01-02 15:53:18,0.17,4000,False,NaN,4002.715,NaN,FigNewton_small,5.67,True,Doritosranch,5.84,True,MDMMT00002,4002.715,415455.695,203,411452.98
2018-01-02 15:53:18,0.88,4000,False,NaN,4000.85,NaN,Granolabar,4.82,True,Jollyranchergreen,5.7,True,MDMMT00002,4000.85,419962.165,204,415961.315
2018-01-02 15:53:18,0.31,4000,False,NaN,4005.425,NaN,BabyRuth,0.14,True,Cheese_PeanutButterCrackers,0.45,True,MDMMT00002,4005.425,424472.425,205,420467.0
2018-01-02 15:53:18,-0.4,4000,False,NaN,4002.13,NaN,PeanutMMs,8.07,True,PopTartsStrawberry,7.67,True,MDMMT00002,4002.13,428980.37,206,424978.24
2018-01-02 15:53:18,-0.03,4000,False,NaN,4000.895,NaN,FlamingCheetos,8.56,True,Hersheymilk_several,8.53,True,MDMMT00002,4000.895,433487.165,207,429486.27
2018-01-02 15:53:18,0.22,4000,False,NaN,4003.23,NaN,Milano,5.87,True,Oreos,6.09,True,MDMMT00002,4003.23,437995.185,208,433991.955
2018-01-02 15:53:18,-2.73,4000,False,NaN,4005.375,NaN,Sourpatch,3.98,True,Slimjim,1.25,True,MDMMT00002,4005.375,442506.36,209,438500.985
